###################################################################
## OUTPUT of StarlightChains_v04.for    [Cid@UFSC - 01/Apr/2007] ##
###################################################################

## Some input info
NGC6652_a_1.cxt                          [arq_obs]
Base.BC03.S                              [arq_base]
NGC6652_a_1.msk                          [arq_masks]
StCv04.C99.config                        [arq_config]
  150                                    [N_base]
    0                                    [N_YAV_components = # of components with extra extinction!]
    0                                    [i_FitPowerLaw (1/0 = Yes/No)]
-9.99                                    [alpha_PowerLaw]
CCM                                      [red_law_option]
 1.458241                                [q_norm = A(l_norm)/A(V)]

## (Re)Sampling Parameters
 3359.00                                 [l_ini (A)]
 6428.00                                 [l_fin (A)]
    1.00                                 [dl    (A)]     (OBS: dl_cushion =    50.00 A)

## Normalization info
 4020.00                                 [l_norm (A) - for base]
 4010.00                                 [llow_norm (A) - window for f_obs]
 4060.00                                 [lupp_norm (A) - window for f_obs]
1.310531E-14                             [fobs_norm (in input units)]

## S/N
 4730.00                                 [llow_SN (A) - window for S/N]
 4780.00                                 [lupp_SN (A) - window for S/N]
  53.684                                 [S/N in S/N window]
  42.801                                 [S/N in norm. window]
  62.234                                 [S/N_err in S/N window]
  49.617                                 [S/N_err in norm. window]
  1.0000                                 [fscale_chi2]

## etc...
  2147483592                             [idum_orig]
  3064                                   [NOl_eff]
  2255                                   [Nl_eff]
   809    NSIGMA                         [Ntot_cliped & clip_method]
  2900870                                [Nglobal_steps]
   7                                     [N_chains]
  19                                     [NEX0s_base = N_base in EX0s-fits]
 0   0   1      386   2.0   9.038E+02    [Clip-Bug, RC-Crash & Burn-In warning-flags, n_censored_weights, wei_nsig_threshold & wei_limit]
    98     98.091     98.079      0.012  [idt_all, wdt_TotTime, wdt_UsrTime & wdt_SysTime (sec)]

## Synthesis Results - Best model ##

 2.14260E+00                             [chi2/Nl_eff]
     1.92387                             [adev (%)]

   100.74429                             [sum-of-x (%)]
 1.54725E-14                             [Flux_tot (units of input spectrum!)]
 5.88437E-10                             [Mini_tot (???)]
 2.96419E-10                             [Mcor_tot (???)]

 -18.79                                  [v0_min  (km/s)]
  64.66                                  [vd_min  (km/s)]
 0.1181                                  [AV_min  (mag)]
 0.0000                                  [YAV_min (mag)]

# j     x_j(%)      Mini_j(%)     Mcor_j(%)     age_j(yr)     Z_j      (L/M)_j    YAV?  Mstars   component_j        a/Fe...       SSP_chi2r SSP_adev(%)   SSP_AV   SSP_x(%)
  1      0.0000     0.0000E+00    0.0000E+00    1.000000E+06  0.00010  8.160E-03    0   1.0000   age020_m22            0.0000     2.6809E+02    16.9798   4.0000    69.5815
  2      9.7075     5.3239E-03    1.0569E-02    3.160000E+06  0.00010  4.759E-02    0   1.0000   age045_m22            0.0000     1.0482E+02     7.2959   2.2291    90.5081
  3      0.0000     0.0000E+00    0.0000E+00    5.010000E+06  0.00010  1.932E-02    0   0.9582   age055_m22            0.0000     1.6354E+02    13.8746   2.6799    74.2868
  4      0.0000     0.0000E+00    0.0000E+00    6.610000E+06  0.00010  9.973E-03    0   0.9297   age061_m22            0.0000     2.4535E+02    16.3471   4.0000    71.8132
  5      0.0000     0.0000E+00    0.0000E+00    8.710000E+06  0.00010  7.690E-03    0   0.9030   age067_m22            0.0000     2.3198E+02    15.8984   4.0000    72.3399
  6      0.0000     0.0000E+00    0.0000E+00    1.000000E+07  0.00010  6.375E-03    0   0.8902   age070_m22            0.0000     2.2782E+02    15.8938   4.0000    72.6532
  7      0.0000     0.0000E+00    0.0000E+00    1.445000E+07  0.00010  4.874E-03    0   0.8589   age078_m22            0.0000     1.4086E+02    11.8352   4.0000    75.5560
  8      0.0000     0.0000E+00    0.0000E+00    2.512000E+07  0.00010  4.103E-03    0   0.8174   age090_m22            0.0000     1.1374E+02     9.1916   3.6689    82.4106
  9      0.0000     0.0000E+00    0.0000E+00    4.000000E+07  0.00010  3.654E-03    0   0.7830   age104_m22            0.0000     1.9882E+02     7.5730   3.3112    88.1797
 10      0.0000     0.0000E+00    0.0000E+00    5.500000E+07  0.00010  3.093E-03    0   0.7597   age110_m22            0.0000     2.3861E+02     7.0556   3.1858    90.3345
 11      0.0000     0.0000E+00    0.0000E+00    1.015200E+08  0.00010  2.431E-03    0   0.7138   age116_m22            0.0000     3.4115E+02     6.8744   2.8146    93.7133
 12      0.0000     0.0000E+00    0.0000E+00    1.609000E+08  0.00010  1.319E-03    0   0.6775   age120_m22            0.0000     3.2731E+02     6.5955   2.3341    96.2114
 13      0.0000     0.0000E+00    0.0000E+00    2.861200E+08  0.00010  1.075E-03    0   0.6412   age125_m22            0.0000     6.6630E+02     7.2730   2.3022   102.5247
 14      0.0000     0.0000E+00    0.0000E+00    5.088000E+08  0.00010  7.183E-04    0   0.6083   age130_m22            0.0000     7.5142E+02     7.8681   2.0221   106.0440
 15      0.0000     0.0000E+00    0.0000E+00    9.047900E+08  0.00010  4.524E-04    0   0.5785   age135_m22            0.0000     7.4624E+02     8.0953   1.8042   107.9921
 16      0.0000     0.0000E+00    0.0000E+00    1.278050E+09  0.00010  3.018E-04    0   0.5588   age138_m22            0.0000     4.0673E+02     6.4519   1.3246   104.9783
 17      0.0000     0.0000E+00    0.0000E+00    1.434000E+09  0.00010  2.691E-04    0   0.5532   age139_m22            0.0000     3.4315E+02     6.1485   1.1743   104.3678
 18      0.0000     0.0000E+00    0.0000E+00    2.500000E+09  0.00010  1.582E-04    0   0.5296   age150_m22            0.0000     3.1937E+02     6.1850   1.0812   104.3073
 19      0.0000     0.0000E+00    0.0000E+00    4.250000E+09  0.00010  1.007E-04    0   0.5110   age158_m22            0.0000     2.0513E+02     5.5040   0.9592   101.8683
 20      0.0000     0.0000E+00    0.0000E+00    6.250000E+09  0.00010  6.869E-05    0   0.4985   age166_m22            0.0000     1.1695E+02     5.0976   0.9378    98.2393
 21      0.0000     0.0000E+00    0.0000E+00    7.500000E+09  0.00010  5.873E-05    0   0.4931   age171_m22            0.0000     1.0885E+02     5.2549   0.9372    97.2717
 22      2.3428     1.3646E+00    1.3149E+00    1.000000E+10  0.00010  4.481E-05    0   0.4854   age181_m22            0.0000     1.0472E+02     5.1845   0.8988    96.9672
 23      2.4060     1.7999E+00    1.7118E+00    1.300000E+10  0.00010  3.489E-05    0   0.4791   age193_m22            0.0000     9.5830E+01     5.0416   0.8413    96.5384
 24      0.0000     0.0000E+00    0.0000E+00    1.500000E+10  0.00010  3.035E-05    0   0.4766   age201_m22            0.0000     9.1490E+01     4.9878   0.8034    96.3424
 25      1.7272     1.7960E+00    1.6882E+00    1.800000E+10  0.00010  2.510E-05    0   0.4735   age213_m22            0.0000     8.0654E+01     4.9041   0.7390    95.6712
 26      0.0000     0.0000E+00    0.0000E+00    1.000000E+06  0.00040  8.458E-03    0   1.0000   age020_m32            0.0000     2.6983E+02    17.2865   4.0000    70.1546
 27      0.0000     0.0000E+00    0.0000E+00    3.160000E+06  0.00040  3.973E-02    0   1.0000   age045_m32            0.0000     1.1575E+02     9.6264   3.5706    82.2142
 28      0.0000     0.0000E+00    0.0000E+00    5.010000E+06  0.00040  1.935E-02    0   0.9532   age055_m32            0.0000     1.4207E+02    12.8686   3.8699    74.9891
 29      0.0000     0.0000E+00    0.0000E+00    6.610000E+06  0.00040  1.204E-02    0   0.9243   age061_m32            0.0000     1.7425E+02    13.2831   4.0000    73.7902
 30      0.0000     0.0000E+00    0.0000E+00    8.710000E+06  0.00040  9.433E-03    0   0.9001   age067_m32            0.0000     1.5442E+02    12.4896   4.0000    74.7877
 31      0.0000     0.0000E+00    0.0000E+00    1.000000E+07  0.00040  8.053E-03    0   0.8877   age070_m32            0.0000     1.4434E+02    12.0548   4.0000    75.1933
 32      0.0000     0.0000E+00    0.0000E+00    1.445000E+07  0.00040  7.027E-03    0   0.8578   age078_m32            0.0000     1.1694E+02    10.6441   3.5528    80.3087
 33      0.0000     0.0000E+00    0.0000E+00    2.512000E+07  0.00040  4.707E-03    0   0.8166   age090_m32            0.0000     1.2728E+02     9.1022   3.2213    84.8676
 34      0.0000     0.0000E+00    0.0000E+00    4.000000E+07  0.00040  3.714E-03    0   0.7827   age104_m32            0.0000     1.8621E+02     7.8060   2.9727    89.1438
 35      0.0000     0.0000E+00    0.0000E+00    5.500000E+07  0.00040  2.982E-03    0   0.7593   age110_m32            0.0000     2.2486E+02     7.3779   2.8928    90.8052
 36      0.0000     0.0000E+00    0.0000E+00    1.015200E+08  0.00040  2.188E-03    0   0.7143   age116_m32            0.0000     4.4194E+02     6.6830   2.5529    97.0330
 37      0.0000     0.0000E+00    0.0000E+00    1.609000E+08  0.00040  1.690E-03    0   0.6856   age120_m32            0.0000     6.0090E+02     6.9803   2.3104   100.6268
 38      0.0000     0.0000E+00    0.0000E+00    2.861200E+08  0.00040  1.152E-03    0   0.6509   age125_m32            0.0000     6.8324E+02     7.4556   2.0289   104.5545
 39      0.0000     0.0000E+00    0.0000E+00    5.088000E+08  0.00040  7.331E-04    0   0.6182   age130_m32            0.0000     7.0664E+02     7.7363   1.8353   106.4935
 40      0.0000     0.0000E+00    0.0000E+00    9.047900E+08  0.00040  3.960E-04    0   0.5890   age135_m32            0.0000     4.0154E+02     6.4258   1.3931   105.2608
 41      0.0000     0.0000E+00    0.0000E+00    1.278050E+09  0.00040  2.854E-04    0   0.5687   age138_m32            0.0000     3.6051E+02     6.3030   1.1295   105.8857
 42      0.0000     0.0000E+00    0.0000E+00    1.434000E+09  0.00040  2.531E-04    0   0.5632   age139_m32            0.0000     3.5194E+02     6.2865   1.0693   105.7799
 43      4.5461     7.9740E-01    8.5258E-01    2.500000E+09  0.00040  1.488E-04    0   0.5386   age150_m32            0.0000     2.5170E+02     5.5760   0.8221   103.9633
 44     17.6732     5.0790E+00    5.2419E+00    4.250000E+09  0.00040  9.082E-05    0   0.5199   age158_m32            0.0000     1.0844E+02     4.6482   0.7746    99.3612
 45      0.0000     0.0000E+00    0.0000E+00    6.250000E+09  0.00040  6.362E-05    0   0.5076   age166_m32            0.0000     5.2192E+01     4.8406   0.7847    94.5572
 46      1.0811     5.3351E-01    5.3240E-01    7.500000E+09  0.00040  5.289E-05    0   0.5027   age171_m32            0.0000     4.2904E+01     4.7917   0.7537    93.3076
 47      0.0002     1.1321E-04    1.1120E-04    1.000000E+10  0.00040  3.972E-05    0   0.4948   age181_m32            0.0000     3.5664E+01     4.6010   0.6914    92.2023
 48      0.0000     0.0000E+00    0.0000E+00    1.300000E+10  0.00040  3.283E-05    0   0.4870   age193_m32            0.0000     5.4248E+01     4.2705   0.6191    95.5944
 49      0.0001     6.9624E-05    6.7089E-05    1.500000E+10  0.00040  2.925E-05    0   0.4854   age201_m32            0.0000     7.3161E+01     4.2479   0.5855    97.5490
 50      0.0000     0.0000E+00    0.0000E+00    1.800000E+10  0.00040  2.469E-05    0   0.4819   age213_m32            0.0000     8.1548E+01     4.2132   0.5370    98.2913
 51      0.0000     0.0000E+00    0.0000E+00    1.000000E+06  0.00400  1.114E-02    0   1.0000   age020_m42            0.0000     2.3761E+02    15.5225   4.0000    70.6413
 52      0.0000     0.0000E+00    0.0000E+00    3.160000E+06  0.00400  4.073E-02    0   0.9999   age045_m42            0.0000     1.0828E+02     8.2212   3.2326    85.8030
 53      0.0000     0.0000E+00    0.0000E+00    5.010000E+06  0.00400  2.534E-02    0   0.9488   age055_m42            0.0000     1.1036E+02    10.8769   3.7073    78.2120
 54      0.0000     0.0000E+00    0.0000E+00    6.610000E+06  0.00400  2.583E-02    0   0.9220   age061_m42            0.0000     1.3572E+02     7.7932   3.0348    86.9468
 55      0.0000     0.0000E+00    0.0000E+00    8.710000E+06  0.00400  1.706E-02    0   0.8983   age067_m42            0.0000     1.1012E+02     9.6762   2.9106    83.7229
 56      0.0000     0.0000E+00    0.0000E+00    1.000000E+07  0.00400  1.271E-02    0   0.8862   age070_m42            0.0000     1.1218E+02    11.1998   2.9298    81.3527
 57      0.0000     0.0000E+00    0.0000E+00    1.445000E+07  0.00400  7.666E-03    0   0.8571   age078_m42            0.0000     1.1620E+02    11.8590   3.3555    78.0160
 58      0.0000     0.0000E+00    0.0000E+00    2.512000E+07  0.00400  5.070E-03    0   0.8174   age090_m42            0.0000     1.0573E+02    10.6389   2.7900    83.1471
 59      0.0000     0.0000E+00    0.0000E+00    4.000000E+07  0.00400  3.505E-03    0   0.7851   age104_m42            0.0000     1.0339E+02     8.8930   2.4369    87.1433
 60      0.0000     0.0000E+00    0.0000E+00    5.500000E+07  0.00400  3.059E-03    0   0.7629   age110_m42            0.0000     2.0916E+02     6.4840   2.4109    93.7467
 61      0.0000     0.0000E+00    0.0000E+00    1.015200E+08  0.00400  2.268E-03    0   0.7207   age116_m42            0.0000     5.2749E+02     6.4281   2.2254   101.3343
 62      0.0000     0.0000E+00    0.0000E+00    1.609000E+08  0.00400  1.720E-03    0   0.6930   age120_m42            0.0000     5.4862E+02     6.3885   2.0568   104.0282
 63      0.0000     0.0000E+00    0.0000E+00    2.861200E+08  0.00400  1.079E-03    0   0.6613   age125_m42            0.0000     5.1622E+02     6.5254   1.6896   105.1056
 64      0.0000     0.0000E+00    0.0000E+00    5.088000E+08  0.00400  6.261E-04    0   0.6313   age130_m42            0.0000     5.8328E+02     7.1312   1.4767   108.5501
 65      0.0000     0.0000E+00    0.0000E+00    9.047900E+08  0.00400  3.535E-04    0   0.6024   age135_m42            0.0000     3.5172E+02     6.0526   1.0871   108.9401
 66      0.0000     0.0000E+00    0.0000E+00    1.278050E+09  0.00400  2.677E-04    0   0.5837   age138_m42            0.0000     9.2685E+01     3.9268   0.3986   107.9853
 67      0.0000     0.0000E+00    0.0000E+00    1.434000E+09  0.00400  1.910E-04    0   0.5716   age139_m42            0.0000     1.4667E+02     4.2287   0.5598   108.7258
 68      0.0000     0.0000E+00    0.0000E+00    2.500000E+09  0.00400  9.818E-05    0   0.5463   age150_m42            0.0000     1.7722E+01     2.4512   0.3313   103.4559
 69      0.0000     0.0000E+00    0.0000E+00    4.250000E+09  0.00400  5.491E-05    0   0.5269   age158_m42            0.0000     3.8080E+00     2.0646   0.2377    99.9077
 70      1.7036     1.1528E+00    1.1788E+00    6.250000E+09  0.00400  3.857E-05    0   0.5151   age166_m42            0.0000     6.6658E+00     2.2613   0.1116    98.9030
 71      0.0000     0.0000E+00    0.0000E+00    7.500000E+09  0.00400  3.243E-05    0   0.5110   age171_m42            0.0000     1.1936E+01     2.5959   0.0000    98.8042
 72      0.8582     9.2406E-01    9.2233E-01    1.000000E+10  0.00400  2.424E-05    0   0.5028   age181_m42            0.0000     2.3146E+01     2.8204  -0.0514    98.3170
 73      0.0005     7.5014E-04    7.3370E-04    1.300000E+10  0.00400  1.883E-05    0   0.4927   age193_m42            0.0000     3.7532E+01     3.1100  -0.0873    98.0195
 74      0.0000     0.0000E+00    0.0000E+00    1.500000E+10  0.00400  1.685E-05    0   0.4919   age201_m42            0.0000     3.3915E+01     3.0573  -0.0806    97.9174
 75      0.0000     0.0000E+00    0.0000E+00    1.800000E+10  0.00400  1.452E-05    0   0.4874   age213_m42            0.0000     2.7682E+01     2.9705  -0.0629    97.9794
 76      0.0000     0.0000E+00    0.0000E+00    1.000000E+06  0.00800  1.286E-02    0   1.0000   age020_m52            0.0000     2.0649E+02    14.4574   4.0000    72.4072
 77      0.0000     0.0000E+00    0.0000E+00    3.160000E+06  0.00800  3.147E-02    0   0.9966   age045_m52            0.0000     1.7436E+02    13.0648   4.0000    73.6528
 78      0.0000     0.0000E+00    0.0000E+00    5.010000E+06  0.00800  2.664E-02    0   0.9443   age055_m52            0.0000     1.2297E+02    11.3414   3.8470    76.8301
 79      0.0000     0.0000E+00    0.0000E+00    6.610000E+06  0.00800  2.151E-02    0   0.9177   age061_m52            0.0000     8.9670E+01     9.9717   2.5114    83.6401
 80      0.0000     0.0000E+00    0.0000E+00    8.710000E+06  0.00800  1.628E-02    0   0.8948   age067_m52            0.0000     1.1244E+02    10.1697   2.8868    83.5401
 81      0.0000     0.0000E+00    0.0000E+00    1.000000E+07  0.00800  1.215E-02    0   0.8827   age070_m52            0.0000     1.1961E+02    10.8187   3.2450    81.3256
 82      0.0000     0.0000E+00    0.0000E+00    1.445000E+07  0.00800  8.739E-03    0   0.8552   age078_m52            0.0000     1.3087E+02    10.0318   3.2644    83.0432
 83      0.0000     0.0000E+00    0.0000E+00    2.512000E+07  0.00800  5.676E-03    0   0.8162   age090_m52            0.0000     1.9624E+02     8.9267   2.8219    88.3058
 84      0.0000     0.0000E+00    0.0000E+00    4.000000E+07  0.00800  3.939E-03    0   0.7841   age104_m52            0.0000     2.4254E+02     7.6494   2.6246    91.7481
 85      0.0000     0.0000E+00    0.0000E+00    5.500000E+07  0.00800  3.155E-03    0   0.7627   age110_m52            0.0000     2.9662E+02     6.9008   2.5602    94.4586
 86      0.0000     0.0000E+00    0.0000E+00    1.015200E+08  0.00800  2.206E-03    0   0.7226   age116_m52            0.0000     4.2385E+02     6.2455   2.3112   100.3869
 87      0.0000     0.0000E+00    0.0000E+00    1.609000E+08  0.00800  1.596E-03    0   0.6963   age120_m52            0.0000     4.6865E+02     6.2939   2.0664   103.1099
 88      0.0000     0.0000E+00    0.0000E+00    2.861200E+08  0.00800  1.002E-03    0   0.6665   age125_m52            0.0000     5.9442E+02     6.9685   1.6964   108.7917
 89      0.0000     0.0000E+00    0.0000E+00    5.088000E+08  0.00800  5.759E-04    0   0.6377   age130_m52            0.0000     5.6280E+02     7.5643   1.2794   115.7450
 90      0.0000     0.0000E+00    0.0000E+00    9.047900E+08  0.00800  2.972E-04    0   0.6086   age135_m52            0.0000     2.2949E+02     6.6349   0.7345   116.3067
 91      0.0000     0.0000E+00    0.0000E+00    1.278050E+09  0.00800  2.242E-04    0   0.5907   age138_m52            0.0000     5.1193E+01     4.4334   0.1839   113.3293
 92      0.0000     0.0000E+00    0.0000E+00    1.434000E+09  0.00800  1.645E-04    0   0.5787   age139_m52            0.0000     4.9998E+01     3.8781   0.3522   111.7609
 93      0.0000     0.0000E+00    0.0000E+00    2.500000E+09  0.00800  7.723E-05    0   0.5519   age150_m52            0.0000     7.9332E+00     3.2992   0.0000   107.5625
 94      0.0000     0.0000E+00    0.0000E+00    4.250000E+09  0.00800  4.151E-05    0   0.5320   age158_m52            0.0000     6.7647E+00     2.5842  -0.0043   104.2840
 95      0.1142     9.9043E-02    1.0218E-01    6.250000E+09  0.00800  3.010E-05    0   0.5197   age166_m52            0.0000     2.4205E+01     3.0339  -0.2007   103.3951
 96      0.0292     3.0899E-02    3.1522E-02    7.500000E+09  0.00800  2.467E-05    0   0.5139   age171_m52            0.0000     3.0880E+01     3.2108  -0.2457   103.2165
 97     51.1590     7.1711E+01    7.1947E+01    1.000000E+10  0.00800  1.862E-05    0   0.5054   age181_m52            0.0000     5.2536E+01     3.8168  -0.3898   103.6350
 98      3.9915     7.2700E+00    7.1987E+00    1.300000E+10  0.00800  1.433E-05    0   0.4988   age193_m52            0.0000     8.5357E+01     4.4046  -0.4944   104.8809
 99      2.5403     5.3296E+00    5.2224E+00    1.500000E+10  0.00800  1.244E-05    0   0.4936   age201_m52            0.0000     1.0042E+02     4.6142  -0.5264   105.5489
100      0.8635     2.1063E+00    2.0438E+00    1.800000E+10  0.00800  1.070E-05    0   0.4888   age213_m52            0.0000     1.0995E+02     4.8174  -0.5652   105.6211
101      0.0000     0.0000E+00    0.0000E+00    1.000000E+06  0.02000  1.989E-02    0   1.0000   age020_m62            0.0000     2.2617E+02    14.7707   4.0000    71.3608
102      0.0000     0.0000E+00    0.0000E+00    3.160000E+06  0.02000  3.772E-02    0   0.9858   age045_m62            0.0000     1.7069E+02    12.7889   4.0000    73.1836
103      0.0000     0.0000E+00    0.0000E+00    5.010000E+06  0.02000  3.227E-02    0   0.9342   age055_m62            0.0000     1.1093E+02     9.5808   3.5322    81.6600
104      0.0000     0.0000E+00    0.0000E+00    6.610000E+06  0.02000  2.387E-02    0   0.9090   age061_m62            0.0000     1.1957E+02    11.6508   3.3281    79.7232
105      0.0000     0.0000E+00    0.0000E+00    8.710000E+06  0.02000  1.102E-02    0   0.8861   age067_m62            0.0000     2.1815E+02    17.2980   3.0636    72.4998
106      0.0000     0.0000E+00    0.0000E+00    1.000000E+07  0.02000  1.011E-02    0   0.8751   age070_m62            0.0000     1.6546E+02    14.9788   3.0421    75.8664
107      0.0000     0.0000E+00    0.0000E+00    1.445000E+07  0.02000  7.331E-03    0   0.8472   age078_m62            0.0000     1.3150E+02    12.9935   3.0243    78.2880
108      0.0000     0.0000E+00    0.0000E+00    2.512000E+07  0.02000  4.206E-03    0   0.8099   age090_m62            0.0000     1.3944E+02    12.9088   2.9394    77.8960
109      0.0000     0.0000E+00    0.0000E+00    4.000000E+07  0.02000  3.373E-03    0   0.7799   age104_m62            0.0000     1.4517E+02     8.5225   2.6333    88.8147
110      0.0000     0.0000E+00    0.0000E+00    5.500000E+07  0.02000  2.747E-03    0   0.7595   age110_m62            0.0000     2.3120E+02     7.1431   2.5145    93.5375
111      0.0000     0.0000E+00    0.0000E+00    1.015200E+08  0.02000  1.878E-03    0   0.7221   age116_m62            0.0000     4.6075E+02     6.6486   2.2971   100.3535
112      0.0000     0.0000E+00    0.0000E+00    1.609000E+08  0.02000  1.378E-03    0   0.6978   age120_m62            0.0000     6.0196E+02     6.9445   2.0902   104.6707
113      0.0000     0.0000E+00    0.0000E+00    2.861200E+08  0.02000  8.869E-04    0   0.6700   age125_m62            0.0000     8.1179E+02     7.9900   1.6379   111.9414
114      0.0000     0.0000E+00    0.0000E+00    5.088000E+08  0.02000  4.834E-04    0   0.6430   age130_m62            0.0000     6.1694E+02     8.1518   1.1213   118.3196
115      0.0000     0.0000E+00    0.0000E+00    9.047900E+08  0.02000  2.312E-04    0   0.6152   age135_m62            0.0000     2.2732E+02     6.1773   0.5474   117.7824
116      0.0000     0.0000E+00    0.0000E+00    1.278050E+09  0.02000  1.387E-04    0   0.5927   age138_m62            0.0000     5.4851E+01     3.8789   0.2345   111.4613
117      0.0000     0.0000E+00    0.0000E+00    1.434000E+09  0.02000  1.168E-04    0   0.5865   age139_m62            0.0000     3.2812E+01     3.4612   0.2225   109.4966
118      0.0000     0.0000E+00    0.0000E+00    2.500000E+09  0.02000  5.505E-05    0   0.5610   age150_m62            0.0000     9.4664E+00     3.2939  -0.1377   106.8503
119      0.0000     0.0000E+00    0.0000E+00    4.250000E+09  0.02000  3.070E-05    0   0.5407   age158_m62            0.0000     4.3984E+01     4.6277  -0.4625   108.5882
120      0.0000     0.0000E+00    0.0000E+00    6.250000E+09  0.02000  2.104E-05    0   0.5277   age166_m62            0.0000     7.8453E+01     5.3579  -0.6096   109.9045
121      0.0000     0.0000E+00    0.0000E+00    7.500000E+09  0.02000  1.770E-05    0   0.5223   age171_m62            0.0000     9.5449E+01     5.8142  -0.7101   110.9155
122      0.0000     0.0000E+00    0.0000E+00    1.000000E+10  0.02000  1.297E-05    0   0.5121   age181_m62            0.0000     1.3869E+02     6.7178  -0.8921   112.6273
123      0.0000     0.0000E+00    0.0000E+00    1.300000E+10  0.02000  9.691E-06    0   0.5047   age193_m62            0.0000     1.7350E+02     7.2833  -0.9895   113.7711
124      0.0000     0.0000E+00    0.0000E+00    1.500000E+10  0.02000  8.360E-06    0   0.4999   age201_m62            0.0000     2.0451E+02     7.5369  -1.0000   114.3095
125      0.0000     0.0000E+00    0.0000E+00    1.800000E+10  0.02000  6.911E-06    0   0.4946   age213_m62            0.0000     2.5048E+02     9.1100  -1.0000   114.9316
126      0.0000     0.0000E+00    0.0000E+00    1.000000E+06  0.05000  2.651E-02    0   0.9998   age020_m72            0.0000     2.1219E+02    14.3540   4.0000    72.3318
127      0.0000     0.0000E+00    0.0000E+00    3.160000E+06  0.05000  4.817E-02    0   0.9577   age045_m72            0.0000     1.2315E+02    11.3615   3.9593    76.4846
128      0.0000     0.0000E+00    0.0000E+00    5.010000E+06  0.05000  3.101E-02    0   0.9147   age055_m72            0.0000     1.1594E+02    11.2739   3.6053    78.7806
129      0.0000     0.0000E+00    0.0000E+00    6.610000E+06  0.05000  1.472E-02    0   0.8877   age061_m72            0.0000     1.7643E+02    14.9043   3.2520    74.7095
130      0.0000     0.0000E+00    0.0000E+00    8.710000E+06  0.05000  1.050E-02    0   0.8638   age067_m72            0.0000     1.3829E+02    12.7175   3.6053    76.4665
131      0.0000     0.0000E+00    0.0000E+00    1.000000E+07  0.05000  8.954E-03    0   0.8524   age070_m72            0.0000     1.1459E+02    10.9681   3.8470    77.7126
132      0.0000     0.0000E+00    0.0000E+00    1.445000E+07  0.05000  6.392E-03    0   0.8262   age078_m72            0.0000     1.0423E+02    10.2883   3.7789    79.1144
133      0.0000     0.0000E+00    0.0000E+00    2.512000E+07  0.05000  4.207E-03    0   0.7902   age090_m72            0.0000     9.7665E+01     8.5854   3.3518    84.4284
134      0.0000     0.0000E+00    0.0000E+00    4.000000E+07  0.05000  3.198E-03    0   0.7618   age104_m72            0.0000     2.8122E+02     6.1792   2.7118    95.3088
135      0.0000     0.0000E+00    0.0000E+00    5.500000E+07  0.05000  2.593E-03    0   0.7432   age110_m72            0.0000     3.7019E+02     6.3046   2.5949    97.6586
136      0.0000     0.0000E+00    0.0000E+00    1.015200E+08  0.05000  1.716E-03    0   0.7092   age116_m72            0.0000     5.2603E+02     6.6306   2.3629   101.2193
137      0.0000     0.0000E+00    0.0000E+00    1.609000E+08  0.05000  1.218E-03    0   0.6876   age120_m72            0.0000     6.7820E+02     7.0394   2.0377   105.8545
138      0.0000     0.0000E+00    0.0000E+00    2.861200E+08  0.05000  7.047E-04    0   0.6618   age125_m72            0.0000     7.5682E+02     7.8027   1.3985   113.8848
139      0.0000     0.0000E+00    0.0000E+00    5.088000E+08  0.05000  3.590E-04    0   0.6356   age130_m72            0.0000     4.9560E+02     8.0169   0.7503   120.4334
140      0.0000     0.0000E+00    0.0000E+00    9.047900E+08  0.05000  1.484E-04    0   0.6088   age135_m72            0.0000     5.9857E+01     5.2026   0.0816   113.1465
141      0.0000     0.0000E+00    0.0000E+00    1.278050E+09  0.05000  9.435E-05    0   0.5924   age138_m72            0.0000     1.9820E+01     5.1085  -0.3106   110.5724
142      0.0000     0.0000E+00    0.0000E+00    1.434000E+09  0.05000  7.827E-05    0   0.5847   age139_m72            0.0000     1.9175E+01     4.7266  -0.2808   109.4006
143      0.0000     0.0000E+00    0.0000E+00    2.500000E+09  0.05000  3.759E-05    0   0.5583   age150_m72            0.0000     6.4620E+01     5.5244  -0.6096   109.3912
144      0.0000     0.0000E+00    0.0000E+00    4.250000E+09  0.05000  1.842E-05    0   0.5374   age158_m72            0.0000     1.2234E+02     6.8706  -0.9582   110.5009
145      0.0000     0.0000E+00    0.0000E+00    6.250000E+09  0.05000  1.207E-05    0   0.5242   age166_m72            0.0000     2.0447E+02    10.3016  -1.0000   110.3676
146      0.0000     0.0000E+00    0.0000E+00    7.500000E+09  0.05000  9.993E-06    0   0.5183   age171_m72            0.0000     2.2306E+02    11.4729  -1.0000   110.1255
147      0.0000     0.0000E+00    0.0000E+00    1.000000E+10  0.05000  7.291E-06    0   0.5081   age181_m72            0.0000     3.1679E+02    15.4911  -1.0000   109.8952
148      0.0000     0.0000E+00    0.0000E+00    1.300000E+10  0.05000  5.316E-06    0   0.5018   age193_m72            0.0000     5.2044E+02    21.2395  -1.0000   108.8120
149      0.0000     0.0000E+00    0.0000E+00    1.500000E+10  0.05000  4.497E-06    0   0.4972   age201_m72            0.0000     6.3248E+02    23.5584  -1.0000   108.6002
150      0.0000     0.0000E+00    0.0000E+00    1.800000E+10  0.05000  3.739E-06    0   0.4924   age213_m72            0.0000     8.0952E+02    26.5203  -1.0000   107.6034


## Synthesis Results - Average & Chains ##

# j      x_j: min, <> & last-chain-values for 1 ...  7 chains
  1      0.0000      0.0051      0.0000      0.0000      0.0000      0.0000      0.0000      0.0000      0.0000
  2      9.7075      7.9321      7.8538      7.9207      7.9150      8.1428      8.0704      8.0904      8.4570
  3      0.0000      0.0163      0.0000      0.0000      0.0000      0.0000      0.0000      0.0000      0.0000
  4      0.0000      0.0080      0.0000      0.0000      0.0000      0.0000      0.0000      0.0000      0.0000
  5      0.0000      0.0105      0.0000      0.0000      0.0000      0.0000      0.0318      0.0000      0.0601
  6      0.0000      0.0050      0.0000      0.0000      0.0000      0.0000      0.0566      0.0000      0.0000
  7      0.0000      0.0081      0.0000      0.0000      0.0000      0.0000      0.0000      0.0000      0.0384
  8      0.0000      0.0147      0.0000      0.0000      0.0000      0.0000      0.0000      0.0000      0.0000
  9      0.0000      0.0236      0.0000      0.0646      0.1785      0.0000      0.0000      0.0000      0.0157
 10      0.0000      0.0310      0.0000      0.1980      0.1247      0.0000      0.0000      0.0000      0.0000
 11      0.0000      0.0422      0.1318      0.0000      0.0000      0.0000      0.0000      0.0000      0.0090
 12      0.0000      0.0269      0.0000      0.0000      0.0000      0.0000      0.0000      0.0000      0.0000
 13      0.0000      0.0129      0.0000      0.0000      0.0000      0.0000      0.0000      0.0000      0.0000
 14      0.0000      0.0111      0.0000      0.0000      0.0000      0.0000      0.0000      0.0000      0.0000
 15      0.0000      0.0087      0.0000      0.0000      0.0000      0.0000      0.0000      0.0000      0.0600
 16      0.0000      0.0135      0.0000      0.0000      0.0000      0.0000      0.0000      0.0000      0.0000
 17      0.0000      0.0202      0.0000      0.0000      0.0000      0.0000      0.0000      0.0000      0.0000
 18      0.0000      0.0251      0.0000      0.0000      0.0000      0.0000      0.0000      0.0000      0.0909
 19      0.0000      0.0736      0.0000      0.0000      0.0000      0.0000      0.0444      0.1293      0.0000
 20      0.0000      0.1478      0.4260      0.5313      0.1687      0.0000      0.1304      0.3512      0.4283
 21      0.0000      0.2192      1.0027      0.6416      0.0000      0.0942      0.2719      0.0000      0.3325
 22      2.3428      0.2047      0.0000      0.4753      0.9331      0.4239      0.3470      0.1898      0.0708
 23      2.4060      0.2124      0.0000      0.0000      0.9335      0.0763      0.9505      0.0000      0.1017
 24      0.0000      0.2905      0.2495      0.0519      0.0000      0.0000      0.1538      0.1362      0.2584
 25      1.7272      0.3822      0.6659      0.2934      0.4315      0.3109      0.2417      0.8491      0.5178
 26      0.0000      0.0054      0.0000      0.0000      0.0000      0.0000      0.0000      0.0000      0.0000
 27      0.0000      0.0168      0.0000      0.0429      0.0231      0.0000      0.0000      0.0000      0.0000
 28      0.0000      0.0093      0.0000      0.0000      0.0000      0.0000      0.0088      0.0000      0.0000
 29      0.0000      0.0085      0.0679      0.0000      0.0000      0.0000      0.0000      0.0000      0.0633
 30      0.0000      0.0071      0.0000      0.0103      0.0000      0.0000      0.0000      0.0000      0.0000
 31      0.0000      0.0063      0.0000      0.0000      0.0627      0.0000      0.0000      0.0000      0.0000
 32      0.0000      0.0138      0.0063      0.0000      0.1325      0.0000      0.0344      0.0000      0.0000
 33      0.0000      0.0211      0.0000      0.0000      0.0000      0.0000      0.1402      0.0000      0.1205
 34      0.0000      0.0241      0.0000      0.0000      0.0000      0.0000      0.0000      0.0823      0.0000
 35      0.0000      0.0263      0.1486      0.0860      0.0000      0.0000      0.0000      0.2015      0.0000
 36      0.0000      0.0221      0.0000      0.0000      0.0666      0.0287      0.1309      0.0000      0.0000
 37      0.0000      0.0198      0.0000      0.0000      0.0000      0.0000      0.0000      0.0000      0.0000
 38      0.0000      0.0105      0.0000      0.0000      0.0527      0.0000      0.0000      0.0469      0.0280
 39      0.0000      0.0089      0.0000      0.0000      0.0000      0.0000      0.0000      0.0000      0.0000
 40      0.0000      0.0106      0.0000      0.0000      0.0000      0.0000      0.0000      0.0000      0.0000
 41      0.0000      0.0228      0.0000      0.0000      0.0000      0.0000      0.2766      0.0000      0.0208
 42      0.0000      0.0225      0.0000      0.0458      0.0000      0.0561      0.0000      0.0000      0.0000
 43      4.5461      5.3686      4.8012      5.4400      5.4217      5.4297      5.4200      5.4099      5.3178
 44     17.6732     19.4718     19.4159     19.4338     19.6567     19.5323     18.4084     19.5295     19.8966
 45      0.0000      0.4588      0.8070      0.4914      0.0000      0.3895      0.4469      0.0000      0.2106
 46      1.0811      0.6530      1.1090      0.9008      0.4254      1.5404      1.6654      0.0958      0.5959
 47      0.0002      0.6117      0.7781      0.3981      0.7894      0.6875      0.4075      1.3506      1.1069
 48      0.0000      0.4217      0.0000      0.8577      0.2868      0.2089      0.0599      0.9605      0.1512
 49      0.0001      0.2148      0.1238      0.0000      0.6488      0.0000      0.2230      0.1244      0.0000
 50      0.0000      0.1785      0.6450      0.0000      0.0000      0.3281      0.0722      0.0000      0.6672
 51      0.0000      0.0058      0.0000      0.0000      0.0000      0.0000      0.0000      0.0000      0.0000
 52      0.0000      0.0236      0.0000      0.0000      0.0000      0.0000      0.0000      0.0000      0.0000
 53      0.0000      0.0108      0.0000      0.0000      0.0000      0.0000      0.0000      0.0000      0.0000
 54      0.0000      0.0213      0.0000      0.0000      0.0000      0.1260      0.0942      0.0000      0.0000
 55      0.0000      0.0342      0.0000      0.0000      0.0000      0.1149      0.0000      0.0000      0.0262
 56      0.0000      0.0322      0.0000      0.0578      0.1300      0.0277      0.0804      0.0000      0.0000
 57      0.0000      0.0097      0.0000      0.0000      0.0066      0.0000      0.0000      0.0000      0.0000
 58      0.0000      0.0207      0.0142      0.0000      0.0000      0.0000      0.0119      0.0000      0.0000
 59      0.0000      0.0104      0.0000      0.0000      0.0000      0.0000      0.0000      0.0000      0.0000
 60      0.0000      0.0188      0.0000      0.0000      0.0000      0.0552      0.0000      0.0000      0.0000
 61      0.0000      0.0228      0.0000      0.0000      0.0000      0.0000      0.0000      0.0000      0.0000
 62      0.0000      0.0264      0.0000      0.0000      0.0000      0.0000      0.0000      0.0000      0.0000
 63      0.0000      0.0141      0.0000      0.0000      0.0000      0.0000      0.0000      0.0000      0.0000
 64      0.0000      0.0209      0.1311      0.0000      0.0000      0.0000      0.0000      0.0000      0.0000
 65      0.0000      0.0409      0.0000      0.0000      0.0000      0.0000      0.0000      0.0108      0.0105
 66      0.0000      0.0564      0.0419      0.0517      0.0306      0.0000      0.2392      0.0000      0.0000
 67      0.0000      0.0493      0.1146      0.0055      0.0000      0.0000      0.0000      0.0000      0.0480
 68      0.0000      0.1865      0.1854      0.3660      0.0102      0.0560      0.0000      0.1324      0.0000
 69      0.0000      0.3317      0.0732      0.2475      0.0000      0.0000      0.0000      0.2814      0.0643
 70      1.7036      0.3988      0.4223      0.7390      0.2476      0.0000      0.3931      0.0000      0.2055
 71      0.0000      0.4687      0.0000      0.0000      0.1675      0.2175      0.5364      0.6691      0.2002
 72      0.8582      0.4363      0.6595      0.9772      0.6256      3.4456      0.0000      1.0329      0.9018
 73      0.0005      0.3330      1.0464      0.0000      1.3786      0.1092      0.2486      0.0000      1.0525
 74      0.0000      0.3338      0.0000      0.2107      0.1900      0.0000      0.4291      0.8044      0.0602
 75      0.0000      0.2258      0.0843      0.0000      0.0000      0.5343      0.2191      0.1808      0.0000
 76      0.0000      0.0113      0.0000      0.0087      0.0000      0.0000      0.0000      0.0000      0.0000
 77      0.0000      0.0079      0.0000      0.0000      0.0000      0.0000      0.0063      0.0000      0.0000
 78      0.0000      0.0157      0.0009      0.0000      0.0000      0.0155      0.0609      0.0000      0.0000
 79      0.0000      0.0184      0.0000      0.0000      0.0000      0.0000      0.0161      0.0000      0.0000
 80      0.0000      0.0122      0.0000      0.0000      0.0000      0.0000      0.0000      0.0923      0.0000
 81      0.0000      0.0188      0.0000      0.0000      0.0646      0.0470      0.0000      0.0000      0.0000
 82      0.0000      0.0138      0.0590      0.0000      0.0000      0.0684      0.0000      0.0000      0.0048
 83      0.0000      0.0395      0.0000      0.2347      0.0041      0.0644      0.0000      0.0675      0.0000
 84      0.0000      0.0310      0.0000      0.0000      0.0000      0.0000      0.0311      0.0000      0.0000
 85      0.0000      0.0205      0.0000      0.0000      0.0000      0.0000      0.2076      0.0000      0.0261
 86      0.0000      0.0285      0.0000      0.0000      0.0000      0.0000      0.0000      0.0000      0.0000
 87      0.0000      0.0230      0.0000      0.0000      0.0000      0.4025      0.0000      0.0000      0.1489
 88      0.0000      0.0097      0.0000      0.0000      0.0000      0.0000      0.0000      0.0000      0.0000
 89      0.0000      0.0101      0.0000      0.0000      0.0000      0.0000      0.0000      0.0000      0.0000
 90      0.0000      0.0076      0.0000      0.0000      0.0000      0.0000      0.0091      0.0000      0.0000
 91      0.0000      0.0162      0.0000      0.1007      0.0000      0.0000      0.0000      0.0000      0.0000
 92      0.0000      0.0219      0.0000      0.0000      0.0000      0.0000      0.1028      0.0000      0.0000
 93      0.0000      0.1188      0.0000      0.0000      0.0000      0.0000      0.0000      0.0000      0.0000
 94      0.0000      0.2595      0.3424      0.2587      0.0000      0.0000      0.0000      0.0000      0.0877
 95      0.1142      0.5680      0.2569      0.4553      1.0032      0.7994      0.6135      0.5804      0.0000
 96      0.0292      0.4486      0.0000      0.0000      0.9640      0.2810      1.0601      0.9148      0.1686
 97     51.1590     55.6573     55.4324     56.6399     54.0986     54.7410     55.0269     56.1183     56.6795
 98      3.9915      0.4295      0.8296      0.3961      1.4491      0.8042      0.9563      0.5987      0.0000
 99      2.5403      0.6015      1.1260      0.9662      0.8647      0.4050      1.4516      0.4805      0.8889
100      0.8635      0.3412      0.5476      0.7528      0.9043      0.5609      0.6821      0.4089      0.8741
101      0.0000      0.0031      0.0000      0.0000      0.0000      0.0000      0.0000      0.0000      0.0000
102      0.0000      0.0195      0.0219      0.0438      0.0000      0.0000      0.0046      0.0000      0.1107
103      0.0000      0.0198      0.2181      0.0000      0.1395      0.0000      0.0000      0.0893      0.0000
104      0.0000      0.0112      0.0000      0.0000      0.0000      0.0000      0.0000      0.0000      0.0000
105      0.0000      0.0063      0.0000      0.0542      0.0000      0.0000      0.0000      0.0000      0.0000
106      0.0000      0.0097      0.0185      0.0181      0.0000      0.0960      0.0000      0.0000      0.0000
107      0.0000      0.0114      0.0000      0.0000      0.0000      0.0000      0.0000      0.0350      0.0000
108      0.0000      0.0071      0.0000      0.0000      0.0000      0.0000      0.0000      0.0000      0.0000
109      0.0000      0.0161      0.0398      0.0000      0.0000      0.0000      0.0000      0.0000      0.0513
110      0.0000      0.0118      0.0000      0.0173      0.0000      0.0000      0.0000      0.0000      0.0000
111      0.0000      0.0212      0.0000      0.0000      0.0000      0.0000      0.1737      0.3051      0.0000
112      0.0000      0.0075      0.0303      0.0000      0.0000      0.0000      0.0000      0.0000      0.0000
113      0.0000      0.0065      0.0000      0.0000      0.0220      0.0000      0.0000      0.0000      0.0000
114      0.0000      0.0075      0.0224      0.0000      0.0000      0.0000      0.0000      0.0000      0.0000
115      0.0000      0.0119      0.0000      0.0000      0.0000      0.0000      0.0000      0.0000      0.0000
116      0.0000      0.0218      0.0000      0.0000      0.0000      0.0000      0.0000      0.0000      0.0000
117      0.0000      0.0254      0.0000      0.0000      0.0000      0.0000      0.0000      0.0000      0.0000
118      0.0000      0.0349      0.0000      0.0000      0.0000      0.0000      0.0357      0.0361      0.0000
119      0.0000      0.0610      0.0000      0.0300      0.0000      0.0517      0.0000      0.0000      0.0000
120      0.0000      0.0383      0.0372      0.1406      0.0000      0.0000      0.0000      0.0000      0.0000
121      0.0000      0.0446      0.0000      0.0000      0.0000      0.0000      0.0000      0.0000      0.0000
122      0.0000      0.0406      0.0000      0.0000      0.0000      0.0000      0.0000      0.0000      0.0000
123      0.0000      0.0366      0.0000      0.0000      0.0000      0.0000      0.0000      0.0000      0.0996
124      0.0000      0.0494      0.0000      0.0000      0.0000      0.0000      0.0000      0.0000      0.0000
125      0.0000      0.0420      0.0000      0.0000      0.0000      0.0000      0.0078      0.0000      0.0000
126      0.0000      0.0051      0.0667      0.0000      0.0000      0.0000      0.0323      0.0000      0.0000
127      0.0000      0.0103      0.0000      0.0000      0.0000      0.0000      0.0000      0.0393      0.0000
128      0.0000      0.0181      0.0000      0.0697      0.0000      0.0000      0.0000      0.0535      0.0351
129      0.0000      0.0167      0.0000      0.0000      0.0000      0.0000      0.0000      0.0000      0.0000
130      0.0000      0.0125      0.0000      0.0000      0.0000      0.0000      0.0000      0.1206      0.0000
131      0.0000      0.0042      0.0000      0.0000      0.0000      0.0253      0.0000      0.0000      0.0000
132      0.0000      0.0100      0.0951      0.0000      0.0000      0.0000      0.0000      0.0446      0.0000
133      0.0000      0.0135      0.0000      0.0000      0.0000      0.0000      0.0000      0.0000      0.0000
134      0.0000      0.0096      0.0278      0.0000      0.0000      0.0000      0.0867      0.0000      0.0000
135      0.0000      0.0202      0.0000      0.0000      0.0653      0.0000      0.0991      0.0000      0.0250
136      0.0000      0.0151      0.0000      0.0000      0.0000      0.0000      0.0000      0.0000      0.0068
137      0.0000      0.0102      0.0000      0.0000      0.0000      0.1173      0.0000      0.0000      0.0000
138      0.0000      0.0073      0.0000      0.0000      0.0000      0.0000      0.0000      0.0232      0.0000
139      0.0000      0.0082      0.0000      0.0000      0.0000      0.0000      0.0000      0.0000      0.0000
140      0.0000      0.0196      0.0000      0.0000      0.0055      0.0000      0.0000      0.0000      0.0000
141      0.0000      0.0336      0.0000      0.0000      0.0000      0.0000      0.0000      0.0000      0.0000
142      0.0000      0.0543      0.0000      0.0000      0.0000      0.0000      0.0000      0.0088      0.0000
143      0.0000      0.1170      0.5060      0.0000      0.0000      0.1694      0.0000      0.0000      0.0441
144      0.0000      0.1158      0.0000      0.0614      0.0013      0.0000      0.0000      0.1224      0.2256
145      0.0000      0.1628      0.0210      0.0000      0.1584      0.0000      0.3691      0.0000      0.0000
146      0.0000      0.0847      0.0000      0.0000      0.0671      0.2401      0.0000      0.0000      0.0000
147      0.0000      0.0796      0.0000      0.1609      0.0000      0.0000      0.0000      0.0000      0.1079
148      0.0000      0.1333      0.0000      0.0000      0.0000      0.0000      0.0000      0.0000      0.0000
149      0.0000      0.1021      0.0746      0.0000      0.0000      0.0000      0.0000      0.0000      0.0588
150      0.0000      0.1098      0.0000      0.0000      0.0000      0.0000      0.0000      0.0000      0.0000

# j      m_j: min, <> & last-chain-values for 1 ...  7 chains
  1  0.0000E+00  3.3130E-05  0.0000E+00  0.0000E+00  0.0000E+00  0.0000E+00  0.0000E+00  0.0000E+00  0.0000E+00
  2  1.0569E-02  8.7810E-03  8.7801E-03  8.8744E-03  8.7690E-03  9.1634E-03  8.9728E-03  9.0952E-03  9.3944E-03
  3  0.0000E+00  4.2573E-05  0.0000E+00  0.0000E+00  0.0000E+00  0.0000E+00  0.0000E+00  0.0000E+00  0.0000E+00
  4  0.0000E+00  3.9312E-05  0.0000E+00  0.0000E+00  0.0000E+00  0.0000E+00  0.0000E+00  0.0000E+00  0.0000E+00
  5  0.0000E+00  6.5193E-05  0.0000E+00  0.0000E+00  0.0000E+00  0.0000E+00  1.9734E-04  0.0000E+00  3.7293E-04
  6  0.0000E+00  3.6554E-05  0.0000E+00  0.0000E+00  0.0000E+00  0.0000E+00  4.1823E-04  0.0000E+00  0.0000E+00
  7  0.0000E+00  7.5210E-05  0.0000E+00  0.0000E+00  0.0000E+00  0.0000E+00  0.0000E+00  0.0000E+00  3.5755E-04
  8  0.0000E+00  1.5447E-04  0.0000E+00  0.0000E+00  0.0000E+00  0.0000E+00  0.0000E+00  0.0000E+00  0.0000E+00
  9  0.0000E+00  2.6679E-04  0.0000E+00  7.3759E-04  2.0170E-03  0.0000E+00  0.0000E+00  0.0000E+00  1.7758E-04
 10  0.0000E+00  4.0118E-04  0.0000E+00  2.5933E-03  1.6153E-03  0.0000E+00  0.0000E+00  0.0000E+00  0.0000E+00
 11  0.0000E+00  6.5238E-04  2.0592E-03  0.0000E+00  0.0000E+00  0.0000E+00  0.0000E+00  0.0000E+00  1.3933E-04
 12  0.0000E+00  7.2755E-04  0.0000E+00  0.0000E+00  0.0000E+00  0.0000E+00  0.0000E+00  0.0000E+00  0.0000E+00
 13  0.0000E+00  4.0389E-04  0.0000E+00  0.0000E+00  0.0000E+00  0.0000E+00  0.0000E+00  0.0000E+00  0.0000E+00
 14  0.0000E+00  4.9722E-04  0.0000E+00  0.0000E+00  0.0000E+00  0.0000E+00  0.0000E+00  0.0000E+00  0.0000E+00
 15  0.0000E+00  5.8343E-04  0.0000E+00  0.0000E+00  0.0000E+00  0.0000E+00  0.0000E+00  0.0000E+00  4.0567E-03
 16  0.0000E+00  1.3157E-03  0.0000E+00  0.0000E+00  0.0000E+00  0.0000E+00  0.0000E+00  0.0000E+00  0.0000E+00
 17  0.0000E+00  2.1880E-03  0.0000E+00  0.0000E+00  0.0000E+00  0.0000E+00  0.0000E+00  0.0000E+00  0.0000E+00
 18  0.0000E+00  4.4270E-03  0.0000E+00  0.0000E+00  0.0000E+00  0.0000E+00  0.0000E+00  0.0000E+00  1.6090E-02
 19  0.0000E+00  1.9686E-02  0.0000E+00  0.0000E+00  0.0000E+00  0.0000E+00  1.1914E-02  3.5099E-02  0.0000E+00
 20  0.0000E+00  5.6497E-02  1.6448E-01  2.0560E-01  6.4554E-02  0.0000E+00  5.0083E-02  1.3636E-01  1.6432E-01
 21  0.0000E+00  9.6938E-02  4.4790E-01  2.8725E-01  0.0000E+00  4.2348E-02  1.2081E-01  0.0000E+00  1.4758E-01
 22  1.3149E+00  1.1684E-01  0.0000E+00  2.7454E-01  5.3293E-01  2.4595E-01  1.9890E-01  1.1001E-01  4.0553E-02
 23  1.7118E+00  1.5368E-01  0.0000E+00  0.0000E+00  6.7588E-01  5.6111E-02  6.9060E-01  0.0000E+00  7.3817E-02
 24  0.0000E+00  2.4030E-01  2.0843E-01  4.3447E-02  0.0000E+00  0.0000E+00  1.2779E-01  1.1439E-01  2.1450E-01
 25  1.6882E+00  3.7981E-01  6.6836E-01  2.9509E-01  4.2915E-01  3.1413E-01  2.4129E-01  8.5695E-01  5.1642E-01
 26  0.0000E+00  3.3723E-05  0.0000E+00  0.0000E+00  0.0000E+00  0.0000E+00  0.0000E+00  0.0000E+00  0.0000E+00
 27  0.0000E+00  2.2239E-05  0.0000E+00  5.7567E-05  3.0642E-05  0.0000E+00  0.0000E+00  0.0000E+00  0.0000E+00
 28  0.0000E+00  2.4257E-05  0.0000E+00  0.0000E+00  0.0000E+00  0.0000E+00  2.2859E-05  0.0000E+00  0.0000E+00
 29  0.0000E+00  3.4533E-05  2.7735E-04  0.0000E+00  0.0000E+00  0.0000E+00  0.0000E+00  0.0000E+00  2.5677E-04
 30  0.0000E+00  3.5735E-05  0.0000E+00  5.2181E-05  0.0000E+00  0.0000E+00  0.0000E+00  0.0000E+00  0.0000E+00
 31  0.0000E+00  3.6310E-05  0.0000E+00  0.0000E+00  3.6458E-04  0.0000E+00  0.0000E+00  0.0000E+00  0.0000E+00
 32  0.0000E+00  8.8828E-05  4.1004E-05  0.0000E+00  8.5283E-04  0.0000E+00  2.2250E-04  0.0000E+00  0.0000E+00
 33  0.0000E+00  1.9243E-04  0.0000E+00  0.0000E+00  0.0000E+00  0.0000E+00  1.2873E-03  0.0000E+00  1.1055E-03
 34  0.0000E+00  2.6806E-04  0.0000E+00  0.0000E+00  0.0000E+00  0.0000E+00  0.0000E+00  9.2768E-04  0.0000E+00
 35  0.0000E+00  3.5268E-04  2.0126E-03  1.1681E-03  0.0000E+00  0.0000E+00  0.0000E+00  2.7453E-03  0.0000E+00
 36  0.0000E+00  3.8017E-04  0.0000E+00  0.0000E+00  1.1462E-03  5.0095E-04  2.2618E-03  0.0000E+00  0.0000E+00
 37  0.0000E+00  4.2405E-04  0.0000E+00  0.0000E+00  0.0000E+00  0.0000E+00  0.0000E+00  0.0000E+00  0.0000E+00
 38  0.0000E+00  3.1214E-04  0.0000E+00  0.0000E+00  1.5707E-03  0.0000E+00  0.0000E+00  1.4171E-03  8.3742E-04
 39  0.0000E+00  3.9717E-04  0.0000E+00  0.0000E+00  0.0000E+00  0.0000E+00  0.0000E+00  0.0000E+00  0.0000E+00
 40  0.0000E+00  8.2792E-04  0.0000E+00  0.0000E+00  0.0000E+00  0.0000E+00  0.0000E+00  0.0000E+00  0.0000E+00
 41  0.0000E+00  2.3943E-03  0.0000E+00  0.0000E+00  0.0000E+00  0.0000E+00  2.9162E-02  0.0000E+00  2.1926E-03
 42  0.0000E+00  2.6378E-03  0.0000E+00  5.4364E-03  0.0000E+00  6.6898E-03  0.0000E+00  0.0000E+00  0.0000E+00
 43  8.5258E-01  1.0237E+00  9.2459E-01  1.0499E+00  1.0347E+00  1.0525E+00  1.0380E+00  1.0476E+00  1.0176E+00
 44  5.2419E+00  5.8724E+00  5.9133E+00  5.9318E+00  5.9328E+00  5.9881E+00  5.5758E+00  5.9812E+00  6.0213E+00
 45  0.0000E+00  1.9285E-01  3.4257E-01  2.0906E-01  0.0000E+00  1.6641E-01  1.8866E-01  0.0000E+00  8.8848E-02
 46  5.3240E-01  3.2698E-01  5.6080E-01  4.5651E-01  2.1319E-01  7.8408E-01  8.3753E-01  4.8693E-02  2.9942E-01
 47  1.1120E-04  4.0142E-01  5.1566E-01  2.6441E-01  5.1850E-01  4.5868E-01  2.6860E-01  9.0012E-01  7.2893E-01
 48  0.0000E+00  3.2956E-01  0.0000E+00  6.7839E-01  2.2433E-01  1.6599E-01  4.7022E-02  7.6228E-01  1.1855E-01
 49  6.7089E-05  1.8779E-01  1.0934E-01  0.0000E+00  5.6770E-01  0.0000E+00  1.9583E-01  1.1046E-01  0.0000E+00
 50  0.0000E+00  1.8353E-01  6.6974E-01  0.0000E+00  0.0000E+00  3.4298E-01  7.4516E-02  0.0000E+00  6.8847E-01
 51  0.0000E+00  2.7200E-05  0.0000E+00  0.0000E+00  0.0000E+00  0.0000E+00  0.0000E+00  0.0000E+00  0.0000E+00
 52  0.0000E+00  3.0474E-05  0.0000E+00  0.0000E+00  0.0000E+00  0.0000E+00  0.0000E+00  0.0000E+00  0.0000E+00
 53  0.0000E+00  2.1282E-05  0.0000E+00  0.0000E+00  0.0000E+00  0.0000E+00  0.0000E+00  0.0000E+00  0.0000E+00
 54  0.0000E+00  4.0133E-05  0.0000E+00  0.0000E+00  0.0000E+00  2.4096E-04  1.7784E-04  0.0000E+00  0.0000E+00
 55  0.0000E+00  9.4777E-05  0.0000E+00  0.0000E+00  0.0000E+00  3.2405E-04  0.0000E+00  0.0000E+00  7.2929E-05
 56  0.0000E+00  1.1819E-04  0.0000E+00  2.1504E-04  4.7796E-04  1.0354E-04  2.9676E-04  0.0000E+00  0.0000E+00
 57  0.0000E+00  5.6999E-05  0.0000E+00  0.0000E+00  3.8991E-05  0.0000E+00  0.0000E+00  0.0000E+00  0.0000E+00
 58  0.0000E+00  1.7598E-04  1.2209E-04  0.0000E+00  0.0000E+00  0.0000E+00  1.0155E-04  0.0000E+00  0.0000E+00
 59  0.0000E+00  1.2303E-04  0.0000E+00  0.0000E+00  0.0000E+00  0.0000E+00  0.0000E+00  0.0000E+00  0.0000E+00
 60  0.0000E+00  2.4714E-04  0.0000E+00  0.0000E+00  0.0000E+00  7.3766E-04  0.0000E+00  0.0000E+00  0.0000E+00
 61  0.0000E+00  3.8118E-04  0.0000E+00  0.0000E+00  0.0000E+00  0.0000E+00  0.0000E+00  0.0000E+00  0.0000E+00
 62  0.0000E+00  5.5951E-04  0.0000E+00  0.0000E+00  0.0000E+00  0.0000E+00  0.0000E+00  0.0000E+00  0.0000E+00
 63  0.0000E+00  4.5548E-04  0.0000E+00  0.0000E+00  0.0000E+00  0.0000E+00  0.0000E+00  0.0000E+00  0.0000E+00
 64  0.0000E+00  1.1077E-03  7.0352E-03  0.0000E+00  0.0000E+00  0.0000E+00  0.0000E+00  0.0000E+00  0.0000E+00
 65  0.0000E+00  3.6710E-03  0.0000E+00  0.0000E+00  0.0000E+00  0.0000E+00  0.0000E+00  9.8257E-04  9.4470E-04
 66  0.0000E+00  6.4770E-03  4.8612E-03  6.0101E-03  3.5126E-03  0.0000E+00  2.7596E-02  0.0000E+00  0.0000E+00
 67  0.0000E+00  7.7703E-03  1.8247E-02  8.7540E-04  0.0000E+00  0.0000E+00  0.0000E+00  0.0000E+00  7.6010E-03
 68  0.0000E+00  5.4662E-02  5.4883E-02  1.0859E-01  2.9897E-03  1.6675E-02  0.0000E+00  3.9401E-02  0.0000E+00
 69  0.0000E+00  1.6767E-01  3.7367E-02  1.2665E-01  0.0000E+00  0.0000E+00  0.0000E+00  1.4446E-01  3.2626E-02
 70  1.1788E+00  2.8058E-01  3.0006E-01  5.2623E-01  1.7432E-01  0.0000E+00  2.7777E-01  0.0000E+00  1.4510E-01
 71  0.0000E+00  3.8906E-01  0.0000E+00  0.0000E+00  1.3918E-01  1.8353E-01  4.4722E-01  5.6408E-01  1.6680E-01
 72  9.2233E-01  4.7680E-01  7.2777E-01  1.0808E+00  6.8414E-01  3.8276E+00  0.0000E+00  1.1463E+00  9.8888E-01
 73  7.3370E-04  4.5902E-01  1.4567E+00  0.0000E+00  1.9019E+00  1.5300E-01  3.4423E-01  0.0000E+00  1.4559E+00
 74  0.0000E+00  5.1332E-01  0.0000E+00  3.2801E-01  2.9239E-01  0.0000E+00  6.6284E-01  1.2563E+00  9.2863E-02
 75  0.0000E+00  3.9933E-01  1.5048E-01  0.0000E+00  0.0000E+00  9.6060E-01  3.8917E-01  3.2471E-01  0.0000E+00
 76  0.0000E+00  4.6427E-05  0.0000E+00  3.6095E-05  0.0000E+00  0.0000E+00  0.0000E+00  0.0000E+00  0.0000E+00
 77  0.0000E+00  1.3106E-05  0.0000E+00  0.0000E+00  0.0000E+00  0.0000E+00  1.0583E-05  0.0000E+00  0.0000E+00
 78  0.0000E+00  2.9262E-05  1.6105E-06  0.0000E+00  0.0000E+00  2.9468E-05  1.1426E-04  0.0000E+00  0.0000E+00
 79  0.0000E+00  4.1387E-05  0.0000E+00  0.0000E+00  0.0000E+00  0.0000E+00  3.6418E-05  0.0000E+00  0.0000E+00
 80  0.0000E+00  3.5305E-05  0.0000E+00  0.0000E+00  0.0000E+00  0.0000E+00  0.0000E+00  2.7156E-04  0.0000E+00
 81  0.0000E+00  7.2121E-05  0.0000E+00  0.0000E+00  2.4751E-04  1.8286E-04  0.0000E+00  0.0000E+00  0.0000E+00
 82  0.0000E+00  7.1330E-05  3.0727E-04  0.0000E+00  0.0000E+00  3.5828E-04  0.0000E+00  0.0000E+00  2.4953E-05
 83  0.0000E+00  2.9918E-04  0.0000E+00  1.7995E-03  3.1048E-05  4.9632E-04  0.0000E+00  5.1929E-04  0.0000E+00
 84  0.0000E+00  3.2473E-04  0.0000E+00  0.0000E+00  0.0000E+00  0.0000E+00  3.2712E-04  0.0000E+00  0.0000E+00
 85  0.0000E+00  2.6127E-04  0.0000E+00  0.0000E+00  0.0000E+00  0.0000E+00  2.6548E-03  0.0000E+00  3.3369E-04
 86  0.0000E+00  4.9099E-04  0.0000E+00  0.0000E+00  0.0000E+00  0.0000E+00  0.0000E+00  0.0000E+00  0.0000E+00
 87  0.0000E+00  5.2860E-04  0.0000E+00  0.0000E+00  0.0000E+00  9.4032E-03  0.0000E+00  0.0000E+00  3.4338E-03
 88  0.0000E+00  3.3884E-04  0.0000E+00  0.0000E+00  0.0000E+00  0.0000E+00  0.0000E+00  0.0000E+00  0.0000E+00
 89  0.0000E+00  5.8791E-04  0.0000E+00  0.0000E+00  0.0000E+00  0.0000E+00  0.0000E+00  0.0000E+00  0.0000E+00
 90  0.0000E+00  8.2299E-04  0.0000E+00  0.0000E+00  0.0000E+00  0.0000E+00  9.9097E-04  0.0000E+00  0.0000E+00
 91  0.0000E+00  2.2530E-03  0.0000E+00  1.4148E-02  0.0000E+00  0.0000E+00  0.0000E+00  0.0000E+00  0.0000E+00
 92  0.0000E+00  4.0545E-03  0.0000E+00  0.0000E+00  0.0000E+00  0.0000E+00  1.9128E-02  0.0000E+00  0.0000E+00
 93  0.0000E+00  4.4709E-02  0.0000E+00  0.0000E+00  0.0000E+00  0.0000E+00  0.0000E+00  0.0000E+00  0.0000E+00
 94  0.0000E+00  1.7518E-01  2.3346E-01  1.7679E-01  0.0000E+00  0.0000E+00  0.0000E+00  0.0000E+00  5.9416E-02
 95  1.0218E-01  5.1669E-01  2.3603E-01  4.1919E-01  9.1328E-01  7.3922E-01  5.6044E-01  5.3610E-01  0.0000E+00
 96  3.1522E-02  4.9226E-01  0.0000E+00  0.0000E+00  1.0588E+00  3.1348E-01  1.1685E+00  1.0195E+00  1.8568E-01
 97  7.1947E+01  7.9588E+01  8.0049E+01  8.1973E+01  7.7421E+01  7.9574E+01  7.9028E+01  8.1493E+01  8.1330E+01
 98  7.1987E+00  7.8758E-01  1.5364E+00  7.3517E-01  2.6595E+00  1.4992E+00  1.7613E+00  1.1149E+00  0.0000E+00
 99  5.2224E+00  1.2573E+00  2.3770E+00  2.0441E+00  1.8091E+00  8.6070E-01  3.0475E+00  1.0201E+00  1.8646E+00
100  2.0438E+00  8.2119E-01  1.3309E+00  1.8336E+00  2.1781E+00  1.3724E+00  1.6487E+00  9.9934E-01  2.1109E+00
101  0.0000E+00  8.2134E-06  0.0000E+00  0.0000E+00  0.0000E+00  0.0000E+00  0.0000E+00  0.0000E+00  0.0000E+00
102  0.0000E+00  2.6807E-05  3.0395E-05  6.1035E-05  0.0000E+00  0.0000E+00  6.3710E-06  0.0000E+00  1.5299E-04
103  0.0000E+00  3.0194E-05  3.3597E-04  0.0000E+00  2.1286E-04  0.0000E+00  0.0000E+00  1.3832E-04  0.0000E+00
104  0.0000E+00  2.2493E-05  0.0000E+00  0.0000E+00  0.0000E+00  0.0000E+00  0.0000E+00  0.0000E+00  0.0000E+00
105  0.0000E+00  2.6783E-05  0.0000E+00  2.3219E-04  0.0000E+00  0.0000E+00  0.0000E+00  0.0000E+00  0.0000E+00
106  0.0000E+00  4.4297E-05  8.4976E-05  8.3324E-05  0.0000E+00  4.4515E-04  0.0000E+00  0.0000E+00  0.0000E+00
107  0.0000E+00  6.9254E-05  0.0000E+00  0.0000E+00  0.0000E+00  0.0000E+00  0.0000E+00  2.1612E-04  0.0000E+00
108  0.0000E+00  7.1672E-05  0.0000E+00  0.0000E+00  0.0000E+00  0.0000E+00  0.0000E+00  0.0000E+00  0.0000E+00
109  0.0000E+00  1.9562E-04  4.8996E-04  0.0000E+00  0.0000E+00  0.0000E+00  0.0000E+00  0.0000E+00  6.2760E-04
110  0.0000E+00  1.7244E-04  0.0000E+00  2.5566E-04  0.0000E+00  0.0000E+00  0.0000E+00  0.0000E+00  0.0000E+00
111  0.0000E+00  4.3042E-04  0.0000E+00  0.0000E+00  0.0000E+00  0.0000E+00  3.5337E-03  6.2766E-03  0.0000E+00
112  0.0000E+00  1.9990E-04  8.1644E-04  0.0000E+00  0.0000E+00  0.0000E+00  0.0000E+00  0.0000E+00  0.0000E+00
113  0.0000E+00  2.6061E-04  0.0000E+00  0.0000E+00  8.7749E-04  0.0000E+00  0.0000E+00  0.0000E+00  0.0000E+00
114  0.0000E+00  5.2691E-04  1.5818E-03  0.0000E+00  0.0000E+00  0.0000E+00  0.0000E+00  0.0000E+00  0.0000E+00
115  0.0000E+00  1.6703E-03  0.0000E+00  0.0000E+00  0.0000E+00  0.0000E+00  0.0000E+00  0.0000E+00  0.0000E+00
116  0.0000E+00  4.9133E-03  0.0000E+00  0.0000E+00  0.0000E+00  0.0000E+00  0.0000E+00  0.0000E+00  0.0000E+00
117  0.0000E+00  6.7261E-03  0.0000E+00  0.0000E+00  0.0000E+00  0.0000E+00  0.0000E+00  0.0000E+00  0.0000E+00
118  0.0000E+00  1.8730E-02  0.0000E+00  0.0000E+00  0.0000E+00  0.0000E+00  1.9251E-02  1.9688E-02  0.0000E+00
119  0.0000E+00  5.6596E-02  0.0000E+00  2.8177E-02  0.0000E+00  4.8776E-02  0.0000E+00  0.0000E+00  0.0000E+00
120  0.0000E+00  5.0569E-02  4.9602E-02  1.8806E-01  0.0000E+00  0.0000E+00  0.0000E+00  0.0000E+00  0.0000E+00
121  0.0000E+00  6.9294E-02  0.0000E+00  0.0000E+00  0.0000E+00  0.0000E+00  0.0000E+00  0.0000E+00  0.0000E+00
122  0.0000E+00  8.4550E-02  0.0000E+00  0.0000E+00  0.0000E+00  0.0000E+00  0.0000E+00  0.0000E+00  0.0000E+00
123  0.0000E+00  1.0055E-01  0.0000E+00  0.0000E+00  0.0000E+00  0.0000E+00  0.0000E+00  0.0000E+00  2.7423E-01
124  0.0000E+00  1.5547E-01  0.0000E+00  0.0000E+00  0.0000E+00  0.0000E+00  0.0000E+00  0.0000E+00  0.0000E+00
125  0.0000E+00  1.5848E-01  0.0000E+00  0.0000E+00  0.0000E+00  0.0000E+00  2.9690E-02  0.0000E+00  0.0000E+00
126  0.0000E+00  1.0091E-05  1.3379E-04  0.0000E+00  0.0000E+00  0.0000E+00  6.4548E-05  0.0000E+00  0.0000E+00
127  0.0000E+00  1.0762E-05  0.0000E+00  0.0000E+00  0.0000E+00  0.0000E+00  0.0000E+00  4.1790E-05  0.0000E+00
128  0.0000E+00  2.8097E-05  0.0000E+00  1.0960E-04  0.0000E+00  0.0000E+00  0.0000E+00  8.4454E-05  5.4789E-05
129  0.0000E+00  5.3007E-05  0.0000E+00  0.0000E+00  0.0000E+00  0.0000E+00  0.0000E+00  0.0000E+00  0.0000E+00
130  0.0000E+00  5.4037E-05  0.0000E+00  0.0000E+00  0.0000E+00  0.0000E+00  0.0000E+00  5.3092E-04  0.0000E+00
131  0.0000E+00  2.1271E-05  0.0000E+00  0.0000E+00  0.0000E+00  1.2898E-04  0.0000E+00  0.0000E+00  0.0000E+00
132  0.0000E+00  6.8163E-05  6.5394E-04  0.0000E+00  0.0000E+00  0.0000E+00  0.0000E+00  3.0876E-04  0.0000E+00
133  0.0000E+00  1.3329E-04  0.0000E+00  0.0000E+00  0.0000E+00  0.0000E+00  0.0000E+00  0.0000E+00  0.0000E+00
134  0.0000E+00  1.2011E-04  3.5263E-04  0.0000E+00  0.0000E+00  0.0000E+00  1.0933E-03  0.0000E+00  0.0000E+00
135  0.0000E+00  3.0483E-04  0.0000E+00  0.0000E+00  9.8619E-04  0.0000E+00  1.5023E-03  0.0000E+00  3.7920E-04
136  0.0000E+00  3.2875E-04  0.0000E+00  0.0000E+00  0.0000E+00  0.0000E+00  0.0000E+00  0.0000E+00  1.4795E-04
137  0.0000E+00  3.0303E-04  0.0000E+00  0.0000E+00  0.0000E+00  3.5469E-03  0.0000E+00  0.0000E+00  0.0000E+00
138  0.0000E+00  3.5961E-04  0.0000E+00  0.0000E+00  0.0000E+00  0.0000E+00  0.0000E+00  1.1638E-03  0.0000E+00
139  0.0000E+00  7.6922E-04  0.0000E+00  0.0000E+00  0.0000E+00  0.0000E+00  0.0000E+00  0.0000E+00  0.0000E+00
140  0.0000E+00  4.2407E-03  0.0000E+00  0.0000E+00  1.1936E-03  0.0000E+00  0.0000E+00  0.0000E+00  0.0000E+00
141  0.0000E+00  1.1104E-02  0.0000E+00  0.0000E+00  0.0000E+00  0.0000E+00  0.0000E+00  0.0000E+00  0.0000E+00
142  0.0000E+00  2.1356E-02  0.0000E+00  0.0000E+00  0.0000E+00  0.0000E+00  0.0000E+00  3.5301E-03  0.0000E+00
143  0.0000E+00  9.1538E-02  3.9986E-01  0.0000E+00  0.0000E+00  1.3474E-01  0.0000E+00  0.0000E+00  3.4611E-02
144  0.0000E+00  1.7806E-01  0.0000E+00  9.5478E-02  1.9596E-03  0.0000E+00  0.0000E+00  1.9101E-01  3.4796E-01
145  0.0000E+00  3.7245E-01  4.8498E-02  0.0000E+00  3.6261E-01  0.0000E+00  8.4816E-01  0.0000E+00  0.0000E+00
146  0.0000E+00  2.3148E-01  0.0000E+00  0.0000E+00  1.8353E-01  6.6681E-01  0.0000E+00  0.0000E+00  0.0000E+00
147  0.0000E+00  2.9212E-01  0.0000E+00  5.9780E-01  0.0000E+00  0.0000E+00  0.0000E+00  0.0000E+00  3.9753E-01
148  0.0000E+00  6.6276E-01  0.0000E+00  0.0000E+00  0.0000E+00  0.0000E+00  0.0000E+00  0.0000E+00  0.0000E+00
149  0.0000E+00  5.9477E-01  4.3898E-01  0.0000E+00  0.0000E+00  0.0000E+00  0.0000E+00  0.0000E+00  3.4357E-01
150  0.0000E+00  7.6161E-01  0.0000E+00  0.0000E+00  0.0000E+00  0.0000E+00  0.0000E+00  0.0000E+00  0.0000E+00

# AV, chi2 & Mass for <> & i_chain = 1 ...  7 solutions
AV       0.1181      0.0992      0.1112      0.1044      0.1073      0.1090      0.1086      0.1115      0.1090
chi2 2.1426E+00  2.1810E+00  2.1612E+00  2.1670E+00  2.1615E+00  2.1641E+00  2.1662E+00  2.1622E+00  2.1633E+00
Mass 2.9642E-10  2.8421E-10  2.8600E-10  2.8279E-10  2.8708E-10  2.8329E-10  2.8658E-10  2.8454E-10  2.8700E-10
 -19.93                                  [v0_min (km/s) before EX0s...]
  64.60                                  [vd_min (km/s) before EX0s...]


## Synthetic spectrum (Best Model) ##l_obs f_obs f_syn wei
 3070    [Nl_obs]
 3359.00    0.00000   0.41154   -2.000
 3360.00    0.00000   0.38487   -2.000
 3361.00    0.14296   0.39122   -1.000
 3362.00    0.22996   0.42431   -1.000
 3363.00    0.25273   0.46559   -1.000
 3364.00    0.27435   0.49330   -1.000
 3365.00    0.27774   0.49672   -1.000
 3366.00    0.27822   0.48132   -1.000
 3367.00    0.27392   0.45939   -1.000
 3368.00    0.26636   0.43951   -1.000
 3369.00    0.25831   0.42361   -1.000
 3370.00    0.26018   0.40990   -1.000
 3371.00    0.25134   0.40258   -1.000
 3372.00    0.25920   0.40911   -1.000
 3373.00    0.28432   0.43228   -1.000
 3374.00    0.30391   0.46643   -1.000
 3375.00    0.31641   0.50017   -1.000
 3376.00    0.34243   0.51939   -1.000
 3377.00    0.36089   0.51504   -1.000
 3378.00    0.34823   0.49217   -1.000
 3379.00    0.33032   0.46852   -1.000
 3380.00    0.32822   0.45806   -1.000
 3381.00    0.33185   0.46385   -1.000
 3382.00    0.33573   0.47880   -1.000
 3383.00    0.33667   0.49388   -1.000
 3384.00    0.34606   0.50616   -1.000
 3385.00    0.35881   0.51430   -1.000
 3386.00    0.36445   0.51495   -1.000
 3387.00    0.36918   0.51187   -1.000
 3388.00    0.37151   0.51187   -1.000
 3389.00    0.38263   0.51487   -1.000
 3390.00    0.39381   0.51400   -1.000
 3391.00    0.38974   0.50325   -1.000
 3392.00    0.37702   0.48716   -1.000
 3393.00    0.36615   0.48017   -1.000
 3394.00    0.38128   0.49012   -1.000
 3395.00    0.40372   0.51281   -1.000
 3396.00    0.41158   0.53825   -1.000
 3397.00    0.42836   0.56020   -1.000
 3398.00    0.44659   0.57584   -1.000
 3399.00    0.45188   0.58087   -1.000
 3400.00    0.46067   0.57474   -1.000
 3401.00    0.47163   0.55997   -1.000
 3402.00    0.46947   0.54118   -1.000
 3403.00    0.46204   0.52634   -1.000
 3404.00    0.44437   0.51802   -1.000
 3405.00    0.43375   0.51317   -1.000
 3406.00    0.42989   0.50746   -1.000
 3407.00    0.41891   0.50105   -1.000
 3408.00    0.41511   0.49818   -1.000
 3409.00    0.41662   0.50236   -1.000
 3410.00    0.42093   0.50956   -1.000
 3411.00    0.42495   0.50907   -1.000
 3412.00    0.42253   0.49755   -1.000
 3413.00    0.41747   0.48238   -1.000
 3414.00    0.40303   0.47554   -1.000
 3415.00    0.39644   0.48278   -1.000
 3416.00    0.41681   0.50019   -1.000
 3417.00    0.43584   0.52290   -1.000
 3418.00    0.46325   0.54589   -1.000
 3419.00    0.47235   0.56396   -1.000
 3420.00    0.47001   0.57024   -1.000
 3421.00    0.47074   0.56074   -1.000
 3422.00    0.46745   0.54203   -1.000
 3423.00    0.46804   0.52857   -1.000
 3424.00    0.47065   0.52665   -1.000
 3425.00    0.46975   0.53116   -1.000
 3426.00    0.47421   0.53727   -1.000
 3427.00    0.48456   0.54822   -1.000
 3428.00    0.49183   0.56724   -1.000
 3429.00    0.50408   0.58595   -1.000
 3430.00    0.51178   0.58813   -1.000
 3431.00    0.51124   0.57060   -1.000
 3432.00    0.49758   0.54797   -1.000
 3433.00    0.48078   0.53805   -1.000
 3434.00    0.48754   0.54546   -1.000
 3435.00    0.49926   0.55582   -1.000
 3436.00    0.49062   0.55422   -1.000
 3437.00    0.47862   0.53851   -1.000
 3438.00    0.45468   0.51185   -1.000
 3439.00    0.42516   0.47802   -1.000
 3440.00    0.40361   0.44566   -1.000
 3441.00    0.38879   0.42432   -1.000
 3442.00    0.38451   0.41955   -1.000
 3443.00    0.39483   0.42925   -1.000
 3444.00    0.41111   0.44679   -1.000
 3445.00    0.43083   0.46821   -1.000
 3446.00    0.45564   0.49377   -1.000
 3447.00    0.47006   0.52107   -1.000
 3448.00    0.48832   0.54563   -1.000
 3449.00    0.50920   0.56113   -1.000
 3450.00    0.51992   0.55933   -1.000
 3451.00    0.52462   0.54296   -1.000
 3452.00    0.51388   0.52788   -1.000
 3453.00    0.49992   0.52507   -1.000
 3454.00    0.49610   0.53229   -1.000
 3455.00    0.50659   0.53832   -1.000
 3456.00    0.51211   0.53393   -1.000
 3457.00    0.50680   0.51930   -1.000
 3458.00    0.49427   0.50093   -1.000
 3459.00    0.48498   0.48550  903.816
 3460.00    0.47509   0.47712  204.475
 3461.00    0.46774   0.48143  133.948
 3462.00    0.48193   0.49955  134.098
 3463.00    0.50626   0.51991   -1.000
 3464.00    0.52031   0.52745   -1.000
 3465.00    0.52022   0.52361   -1.000
 3466.00    0.52079   0.52230  903.816
 3467.00    0.52788   0.53246   -1.000
 3468.00    0.53870   0.55154   -1.000
 3469.00    0.55813   0.56802   -1.000
 3470.00    0.56788   0.57081  903.816
 3471.00    0.55494   0.55765  903.816
 3472.00    0.53641   0.53311   -1.000
 3473.00    0.51956   0.50295   -1.000
 3474.00    0.49579   0.47521   -1.000
 3475.00    0.46879   0.45861   -1.000
 3476.00    0.45806   0.46115  207.873
 3477.00    0.47662   0.48147  136.975
 3478.00    0.49969   0.50798  137.136
 3479.00    0.52217   0.53015  293.160
 3480.00    0.54412   0.54266  903.816
 3481.00    0.55403   0.54306   -1.000
 3482.00    0.55432   0.53444   -1.000
 3483.00    0.54395   0.52552   -1.000
 3484.00    0.54083   0.52662   -1.000
 3485.00    0.54921   0.54136   -1.000
 3486.00    0.56521   0.55842   -1.000
 3487.00    0.57770   0.56198   -1.000
 3488.00    0.56814   0.54621   -1.000
 3489.00    0.53710   0.52007   -1.000
 3490.00    0.51134   0.49956   -1.000
 3491.00    0.50215   0.49442   -1.000
 3492.00    0.50217   0.50140  903.816
 3493.00    0.51627   0.50985   -1.000
 3494.00    0.52512   0.51096   -1.000
 3495.00    0.51264   0.50292   -1.000
 3496.00    0.49861   0.49589   -1.000
 3497.00    0.50550   0.50334   -1.000
 3498.00    0.53499   0.52579   -1.000
 3499.00    0.56160   0.55065   -1.000
 3500.00    0.58356   0.56588   -1.000
 3501.00    0.59968   0.57384   -1.000
 3502.00    0.60827   0.58032   -1.000
 3503.00    0.61140   0.58210   -1.000
 3504.00    0.60058   0.57534   -1.000
 3505.00    0.58376   0.56287   -1.000
 3506.00    0.56977   0.55275   -1.000
 3507.00    0.56959   0.54953   -1.000
 3508.00    0.57586   0.54785   -1.000
 3509.00    0.58173   0.54161   -1.000
 3510.00    0.57722   0.53172   -1.000
 3511.00    0.55597   0.52037   -1.000
 3512.00    0.53725   0.50757   -1.000
 3513.00    0.53065   0.49713   -1.000
 3514.00    0.52380   0.49921   -1.000
 3515.00    0.53680   0.52155   -1.000
 3516.00    0.56782   0.55629   -1.000
 3517.00    0.59539   0.58333   -1.000
 3518.00    0.60206   0.58764   -1.000
 3519.00    0.58481   0.57006   -1.000
 3520.00    0.57239   0.54423   -1.000
 3521.00    0.55351   0.52057   -1.000
 3522.00    0.52436   0.50071   -1.000
 3523.00    0.50418   0.48108   -1.000
 3524.00    0.48047   0.46284   -1.000
 3525.00    0.46860   0.45668  212.156
 3526.00    0.47171   0.47167  135.561
 3527.00    0.49618   0.50336  137.053
 3528.00    0.53275   0.53866  284.367
 3529.00    0.56531   0.56339  903.816
 3530.00    0.57825   0.57136   -1.000
 3531.00    0.57168   0.56728   -1.000
 3532.00    0.56266   0.56274  903.816
 3533.00    0.55919   0.56481   -1.000
 3534.00    0.57306   0.57169  903.816
 3535.00    0.58703   0.57903   -1.000
 3536.00    0.59078   0.58640   -1.000
 3537.00    0.60033   0.59664  903.816
 3538.00    0.61422   0.60871   -1.000
 3539.00    0.61223   0.61497   -1.000
 3540.00    0.60242   0.61125   -1.000
 3541.00    0.60572   0.60341  903.816
 3542.00    0.60142   0.60130  903.816
 3543.00    0.60050   0.60750   -1.000
 3544.00    0.60210   0.61478   -1.000
 3545.00    0.59512   0.61589   -1.000
 3546.00    0.58865   0.61046   -1.000
 3547.00    0.58067   0.60405   -1.000
 3548.00    0.58029   0.60209   -1.000
 3549.00    0.58341   0.60436   -1.000
 3550.00    0.58864   0.60527   -1.000
 3551.00    0.59199   0.59899   -1.000
 3552.00    0.57548   0.58529   -1.000
 3553.00    0.55569   0.57123   -1.000
 3554.00    0.54915   0.56562   -1.000
 3555.00    0.55725   0.56966   -1.000
 3556.00    0.56498   0.57632   -1.000
 3557.00    0.56376   0.57929   -1.000
 3558.00    0.55899   0.57766   -1.000
 3559.00    0.54991   0.57655   -1.000
 3560.00    0.54680   0.58129   -1.000
 3561.00    0.55676   0.59076   -1.000
 3562.00    0.56403   0.59358   -1.000
 3563.00    0.56036   0.57587   -1.000
 3564.00    0.53125   0.53904   -1.000
 3565.00    0.48515   0.50251   -1.000
 3566.00    0.45986   0.48514   -1.000
 3567.00    0.46674   0.48418  137.220
 3568.00    0.47165   0.48261  138.711
 3569.00    0.46203   0.47390  137.551
 3570.00    0.45560   0.46670  139.877
 3571.00    0.46507   0.46983  143.442
 3572.00    0.48294   0.48222  141.938
 3573.00    0.49513   0.49556  136.343
 3574.00    0.50603   0.50568  269.784
 3575.00    0.51635   0.51366   -1.000
 3576.00    0.51861   0.51829  903.816
 3577.00    0.50859   0.51507   -1.000
 3578.00    0.50027   0.50049  903.816
 3579.00    0.47844   0.47555   -1.000
 3580.00    0.44443   0.44939  228.372
 3581.00    0.41553   0.43330  144.671
 3582.00    0.41429   0.43249  154.244
 3583.00    0.42580   0.43706  158.470
 3584.00    0.42191   0.43280  159.246
 3585.00    0.40668   0.42023  161.792
 3586.00    0.39473   0.41143  166.608
 3587.00    0.40176   0.41712  170.351
 3588.00    0.42466   0.43954  166.375
 3589.00    0.45427   0.47323  157.639
 3590.00    0.49206   0.50808  149.687
 3591.00    0.52151   0.53343  138.837
 3592.00    0.54415   0.54455  264.183
 3593.00    0.55598   0.54876   -1.000
 3594.00    0.55978   0.55807  903.816
 3595.00    0.56978   0.57638   -1.000
 3596.00    0.59213   0.59686   -1.000
 3597.00    0.60737   0.61177   -1.000
 3598.00    0.61910   0.62118   -1.000
 3599.00    0.62581   0.62561  903.816
 3600.00    0.61948   0.61855  903.816
 3601.00    0.60626   0.59654   -1.000
 3602.00    0.58411   0.56778   -1.000
 3603.00    0.55478   0.54390   -1.000
 3604.00    0.53491   0.53220   -1.000
 3605.00    0.53571   0.52994   -1.000
 3606.00    0.54176   0.52735   -1.000
 3607.00    0.53367   0.51729   -1.000
 3608.00    0.51485   0.50384   -1.000
 3609.00    0.50405   0.49854   -1.000
 3610.00    0.50764   0.50722  903.816
 3611.00    0.52203   0.52440  903.816
 3612.00    0.53804   0.54030  903.816
 3613.00    0.54730   0.55409   -1.000
 3614.00    0.56230   0.56963   -1.000
 3615.00    0.57564   0.57988   -1.000
 3616.00    0.56620   0.56989   -1.000
 3617.00    0.54181   0.53776   -1.000
 3618.00    0.50658   0.50298   -1.000
 3619.00    0.48716   0.49263   -1.000
 3620.00    0.50262   0.51403  223.615
 3621.00    0.53914   0.55129   -1.000
 3622.00    0.57750   0.58352   -1.000
 3623.00    0.59424   0.60436   -1.000
 3624.00    0.60401   0.62381   -1.000
 3625.00    0.62502   0.64975   -1.000
 3626.00    0.64005   0.67570   -1.000
 3627.00    0.64506   0.68684   -1.000
 3628.00    0.64401   0.67000   -1.000
 3629.00    0.61167   0.62464   -1.000
 3630.00    0.55523   0.56906   -1.000
 3631.00    0.51105   0.53129   -1.000
 3632.00    0.50018   0.52421   -1.000
 3633.00    0.51945   0.53973   -1.000
 3634.00    0.53670   0.56104   -1.000
 3635.00    0.54407   0.57818   -1.000
 3636.00    0.56170   0.59269   -1.000
 3637.00    0.59049   0.61119   -1.000
 3638.00    0.61388   0.63358   -1.000
 3639.00    0.62983   0.65113   -1.000
 3640.00    0.63986   0.65525   -1.000
 3641.00    0.63384   0.64349   -1.000
 3642.00    0.61345   0.62127   -1.000
 3643.00    0.58487   0.59748   -1.000
 3644.00    0.56332   0.57740   -1.000
 3645.00    0.55761   0.56144   -1.000
 3646.00    0.55093   0.54856  903.816
 3647.00    0.53562   0.54103   -1.000
 3648.00    0.53487   0.54315   -1.000
 3649.00    0.55235   0.55626   -1.000
 3650.00    0.57311   0.57912   -1.000
 3651.00    0.59745   0.60726   -1.000
 3652.00    0.62081   0.63384   -1.000
 3653.00    0.63879   0.65274   -1.000
 3654.00    0.64615   0.66484   -1.000
 3655.00    0.65437   0.67496   -1.000
 3656.00    0.66967   0.68657   -1.000
 3657.00    0.67419   0.69804   -1.000
 3658.00    0.67005   0.70522   -1.000
 3659.00    0.67567   0.70676   -1.000
 3660.00    0.67772   0.70182   -1.000
 3661.00    0.67270   0.68982   -1.000
 3662.00    0.66164   0.67467   -1.000
 3663.00    0.64639   0.66420   -1.000
 3664.00    0.64618   0.66201   -1.000
 3665.00    0.65182   0.66415   -1.000
 3666.00    0.65175   0.66307   -1.000
 3667.00    0.64529   0.65441   -1.000
 3668.00    0.63996   0.64179  903.816
 3669.00    0.63568   0.63526  903.816
 3670.00    0.63372   0.64247   -1.000
 3671.00    0.64298   0.65938   -1.000
 3672.00    0.65984   0.67473   -1.000
 3673.00    0.67084   0.68177   -1.000
 3674.00    0.66372   0.67948   -1.000
 3675.00    0.65200   0.66735   -1.000
 3676.00    0.64162   0.64653   -1.000
 3677.00    0.62403   0.62256  903.816
 3678.00    0.60440   0.60268  903.816
 3679.00    0.59300   0.59330  903.816
 3680.00    0.59871   0.59704  903.816
 3681.00    0.61764   0.60981   -1.000
 3682.00    0.62804   0.62280   -1.000
 3683.00    0.62673   0.62672  903.816
 3684.00    0.62064   0.61600   -1.000
 3685.00    0.60035   0.59397   -1.000
 3686.00    0.57557   0.57404  903.816
 3687.00    0.57037   0.57177  903.816
 3688.00    0.58712   0.59241   -1.000
 3689.00    0.61561   0.62747   -1.000
 3690.00    0.64836   0.66061   -1.000
 3691.00    0.66713   0.67874   -1.000
 3692.00    0.66494   0.67856   -1.000
 3693.00    0.65696   0.66857   -1.000
 3694.00    0.65593   0.66001   -1.000
 3695.00    0.65614   0.65699  903.816
 3696.00    0.65717   0.65988   -1.000
 3697.00    0.67097   0.67197  903.816
 3698.00    0.69303   0.69400  903.816
 3699.00    0.71303   0.71623   -1.000
 3700.00    0.72102   0.72459   -1.000
 3701.00    0.71390   0.70793   -1.000
 3702.00    0.67758   0.66508   -1.000
 3703.00    0.61989   0.60903   -1.000
 3704.00    0.57320   0.56104   -1.000
 3705.00    0.54774   0.53560   -1.000
 3706.00    0.54546   0.53370   -1.000
 3707.00    0.55974   0.54484   -1.000
 3708.00    0.57203   0.55881   -1.000
 3709.00    0.58384   0.57355   -1.000
 3710.00    0.60220   0.59181   -1.000
 3711.00    0.63056   0.61671   -1.000
 3712.00    0.66639   0.64891   -1.000
 3713.00    0.70090   0.68269   -1.000
 3714.00    0.72781   0.70726   -1.000
 3715.00    0.73292   0.71472   -1.000
 3716.00    0.72045   0.70365   -1.000
 3717.00    0.69632   0.67161   -1.000
 3718.00    0.64145   0.61642   -1.000
 3719.00    0.56498   0.54741   -1.000
 3720.00    0.50216   0.48867   -1.000
 3721.00    0.47671   0.46613   -1.000
 3722.00    0.50278   0.48698   -1.000
 3723.00    0.56131   0.53888   -1.000
 3724.00    0.62397   0.59771   -1.000
 3725.00    0.66449   0.63637   -1.000
 3726.00    0.66468   0.64618   -1.000
 3727.00    0.64835   0.64265   -1.000
 3728.00    0.64764   0.64237   -1.000
 3729.00    0.65717   0.64362   -1.000
 3730.00    0.65073   0.63192   -1.000
 3731.00    0.61686   0.59420   -1.000
 3732.00    0.56199   0.53331   -1.000
 3733.00    0.49788   0.46935   -1.000
 3734.00    0.44709   0.42360   -1.000
 3735.00    0.42658   0.41100  139.904
 3736.00    0.43981   0.43582  151.113
 3737.00    0.49046   0.48946  149.898
 3738.00    0.55788   0.55565  138.843
 3739.00    0.61654   0.61624  236.277
 3740.00    0.66304   0.65299   -1.000
 3741.00    0.67365   0.65724   -1.000
 3742.00    0.64685   0.63481   -1.000
 3743.00    0.61407   0.60068   -1.000
 3744.00    0.58246   0.56677   -1.000
 3745.00    0.55140   0.53807   -1.000
 3746.00    0.52341   0.51002   -1.000
 3747.00    0.48917   0.47775   -1.000
 3748.00    0.45694   0.44878  245.747
 3749.00    0.45355   0.44043  138.399
 3750.00    0.48746   0.46616   -1.000
 3751.00    0.55374   0.52221   -1.000
 3752.00    0.62317   0.58977   -1.000
 3753.00    0.67813   0.65166   -1.000
 3754.00    0.71748   0.69382   -1.000
 3755.00    0.73372   0.70292   -1.000
 3756.00    0.70631   0.67584   -1.000
 3757.00    0.64285   0.62831   -1.000
 3758.00    0.59250   0.58913   -1.000
 3759.00    0.57896   0.57770  903.816
 3760.00    0.60496   0.58905   -1.000
 3761.00    0.64061   0.60652   -1.000
 3762.00    0.65370   0.61795   -1.000
 3763.00    0.65382   0.62239   -1.000
 3764.00    0.65341   0.62217   -1.000
 3765.00    0.65457   0.61569   -1.000
 3766.00    0.64332   0.60365   -1.000
 3767.00    0.62363   0.59071   -1.000
 3768.00    0.61436   0.57923   -1.000
 3769.00    0.61037   0.57009   -1.000
 3770.00    0.61271   0.57004   -1.000
 3771.00    0.62662   0.58821   -1.000
 3772.00    0.65353   0.62049   -1.000
 3773.00    0.68564   0.65236   -1.000
 3774.00    0.70230   0.67352   -1.000
 3775.00    0.71006   0.68535   -1.000
 3776.00    0.71955   0.69578   -1.000
 3777.00    0.72893   0.71096   -1.000
 3778.00    0.74245   0.73117   -1.000
 3779.00    0.76501   0.75281   -1.000
 3780.00    0.79018   0.77104   -1.000
 3781.00    0.79519   0.78198   -1.000
 3782.00    0.79310   0.78574   -1.000
 3783.00    0.79125   0.78146   -1.000
 3784.00    0.77913   0.76347   -1.000
 3785.00    0.75158   0.73068   -1.000
 3786.00    0.70903   0.69256   -1.000
 3787.00    0.67686   0.66093   -1.000
 3788.00    0.65841   0.64366   -1.000
 3789.00    0.65190   0.64179   -1.000
 3790.00    0.66203   0.64796   -1.000
 3791.00    0.67163   0.65062   -1.000
 3792.00    0.66066   0.64096   -1.000
 3793.00    0.63621   0.61800   -1.000
 3794.00    0.61130   0.58812   -1.000
 3795.00    0.58462   0.55649   -1.000
 3796.00    0.55781   0.52378   -1.000
 3797.00    0.53127   0.49577   -1.000
 3798.00    0.52011   0.48921   -1.000
 3799.00    0.55201   0.51680   -1.000
 3800.00    0.60843   0.57161   -1.000
 3801.00    0.66201   0.63286   -1.000
 3802.00    0.70604   0.68276   -1.000
 3803.00    0.73324   0.71285   -1.000
 3804.00    0.74045   0.72143   -1.000
 3805.00    0.72984   0.71220   -1.000
 3806.00    0.70534   0.69909   -1.000
 3807.00    0.69272   0.69773   -1.000
 3808.00    0.71340   0.71279  903.816
 3809.00    0.73743   0.73460  903.816
 3810.00    0.74714   0.74644  903.816
 3811.00    0.73465   0.73572  903.816
 3812.00    0.70641   0.70301  903.816
 3813.00    0.67366   0.66172   -1.000
 3814.00    0.63376   0.62866   -1.000
 3815.00    0.61585   0.61606  903.816
 3816.00    0.63126   0.62265   -1.000
 3817.00    0.64935   0.63241   -1.000
 3818.00    0.64260   0.62632   -1.000
 3819.00    0.60981   0.60390   -1.000
 3820.00    0.58469   0.58585  903.816
 3821.00    0.58809   0.58599   -1.000
 3822.00    0.60241   0.59447   -1.000
 3823.00    0.59521   0.58955   -1.000
 3824.00    0.55911   0.56561   -1.000
 3825.00    0.53081   0.53844   -1.000
 3826.00    0.51917   0.52212  267.420
 3827.00    0.51381   0.51803  140.113
 3828.00    0.52040   0.52075  141.102
 3829.00    0.52656   0.52261  139.327
 3830.00    0.51370   0.51413  137.041
 3831.00    0.48199   0.49087  136.642
 3832.00    0.45056   0.45760  140.497
 3833.00    0.43299   0.42671  149.213
 3834.00    0.42702   0.41079  157.866
 3835.00    0.43589   0.41137   -1.000
 3836.00    0.44713   0.42210   -1.000
 3837.00    0.44325   0.43538  149.070
 3838.00    0.43946   0.44902  148.836
 3839.00    0.45852   0.46868  152.312
 3840.00    0.49524   0.50230  152.987
 3841.00    0.54959   0.54938  147.265
 3842.00    0.60752   0.59891  239.689
 3843.00    0.64349   0.63831   -1.000
 3844.00    0.65789   0.66157  903.816
 3845.00    0.66276   0.67373   -1.000
 3846.00    0.66783   0.68211   -1.000
 3847.00    0.66951   0.68597   -1.000
 3848.00    0.66410   0.68141   -1.000
 3849.00    0.65343   0.67323   -1.000
 3850.00    0.64517   0.67230   -1.000
 3851.00    0.65313   0.68268   -1.000
 3852.00    0.66906   0.69557   -1.000
 3853.00    0.67136   0.69926   -1.000
 3854.00    0.65946   0.69048   -1.000
 3855.00    0.64337   0.67453   -1.000
 3856.00    0.61990   0.65676   -1.000
 3857.00    0.60321   0.63690   -1.000
 3858.00    0.58062   0.61695   -1.000
 3859.00    0.56220   0.60826   -1.000
 3860.00    0.57941   0.62186   -1.000
 3861.00    0.60796   0.65465   -1.000
 3862.00    0.65562   0.68855   -1.000
 3863.00    0.68417   0.70622   -1.000
 3864.00    0.69031   0.70636   -1.000
 3865.00    0.68566   0.70002   -1.000
 3866.00    0.67806   0.69608   -1.000
 3867.00    0.66495   0.69423   -1.000
 3868.00    0.64692   0.68852   -1.000
 3869.00    0.63550   0.67344   -1.000
 3870.00    0.61373   0.65008   -1.000
 3871.00    0.57890   0.62791   -1.000
 3872.00    0.56987   0.61973   -1.000
 3873.00    0.60986   0.63359   -1.000
 3874.00    0.65641   0.66008  903.816
 3875.00    0.67860   0.67647   -1.000
 3876.00    0.66576   0.66746  903.816
 3877.00    0.62302   0.64274   -1.000
 3878.00    0.59916   0.62472   -1.000
 3879.00    0.60497   0.62160   -1.000
 3880.00    0.60180   0.62559   -1.000
 3881.00    0.58649   0.62790   -1.000
 3882.00    0.58387   0.62743   -1.000
 3883.00    0.60322   0.62454   -1.000
 3884.00    0.62845   0.61036   -1.000
 3885.00    0.61669   0.57895   -1.000
 3886.00    0.57864   0.53886   -1.000
 3887.00    0.55315   0.50627   -1.000
 3888.00    0.54544   0.49592   -1.000
 3889.00    0.56120   0.51474   -1.000
 3890.00    0.61026   0.55898   -1.000
 3891.00    0.66415   0.61249   -1.000
 3892.00    0.69227   0.65316   -1.000
 3893.00    0.70061   0.67120   -1.000
 3894.00    0.70660   0.67648   -1.000
 3895.00    0.71337   0.68357   -1.000
 3896.00    0.72826   0.69592   -1.000
 3897.00    0.73654   0.70677   -1.000
 3898.00    0.73608   0.71105   -1.000
 3899.00    0.73551   0.71208   -1.000
 3900.00    0.74139   0.71622   -1.000
 3901.00    0.74300   0.72228   -1.000
 3902.00    0.74053   0.72319   -1.000
 3903.00    0.73031   0.71497   -1.000
 3904.00    0.71115   0.70118   -1.000
 3905.00    0.69341   0.69350  903.816
 3906.00    0.69826   0.70357   -1.000
 3907.00    0.73453   0.73177  903.816
 3908.00    0.77226   0.76555   -1.000
 3909.00    0.79639   0.79182   -1.000
 3910.00    0.81360   0.80708   -1.000
 3911.00    0.82236   0.81361   -1.000
 3912.00    0.82562   0.81213   -1.000
 3913.00    0.81562   0.80335   -1.000
 3914.00    0.79419   0.79159  805.357
 3915.00    0.78271   0.78208  818.278
 3916.00    0.77965   0.77448   -1.000
 3917.00    0.77150   0.76405   -1.000
 3918.00    0.75513   0.74665   -1.000
 3919.00    0.72916   0.72384   -1.000
 3920.00    0.70138   0.70432  903.816
 3921.00    0.68682   0.69611   -1.000
 3922.00    0.69113   0.69944   -1.000
 3923.00    0.70392   0.70525  903.816
 3924.00    0.70271   0.70220  903.816
 3925.00    0.67770   0.68251   -1.000
 3926.00    0.62701   0.64449   -1.000
 3927.00    0.55809   0.59355   -1.000
 3928.00    0.49505   0.53677   -1.000
 3929.00    0.43474   0.47888   -1.000
 3930.00    0.35753   0.41921   -1.000
 3931.00    0.29613   0.35715   -1.000
 3932.00    0.25514   0.30208   -1.000
 3933.00    0.22697   0.27149   -1.000
 3934.00    0.22520   0.27882   -1.000
 3935.00    0.26405   0.32227   -1.000
 3936.00    0.32610   0.38723   -1.000
 3937.00    0.39438   0.45912   -1.000
 3938.00    0.47755   0.52722   -1.000
 3939.00    0.54518   0.58291   -1.000
 3940.00    0.59649   0.62181   -1.000
 3941.00    0.62737   0.64255   -1.000
 3942.00    0.63028   0.65078   -1.000
 3943.00    0.62286   0.65942   -1.000
 3944.00    0.64802   0.67774   -1.000
 3945.00    0.69837   0.70332   -1.000
 3946.00    0.73608   0.72555   -1.000
 3947.00    0.74833   0.73856   -1.000
 3948.00    0.75037   0.74710  903.816
 3949.00    0.76851   0.75704  190.942
 3950.00    0.78618   0.76550   88.413
 3951.00    0.78380   0.76789   85.276
 3952.00    0.77683   0.76945   83.826
 3953.00    0.79081   0.77514   84.614
 3954.00    0.80868   0.77876   84.711
 3955.00    0.79877   0.77393   82.904
 3956.00    0.77614   0.76359   82.057
 3957.00    0.77041   0.75579   83.872
 3958.00    0.77454   0.75017   86.282
 3959.00    0.75918   0.73104   86.418
 3960.00    0.71104   0.68878   86.305
 3961.00    0.63633   0.63571   91.223
 3962.00    0.57938   0.58780  101.953
 3963.00    0.53835   0.54750  114.323
 3964.00    0.49081   0.50265  123.824
 3965.00    0.42538   0.44145   29.391
 3966.00    0.34624   0.36741   14.708
 3967.00    0.27520   0.29904   17.593
 3968.00    0.23786   0.25956   21.655
 3969.00    0.24279   0.26193   25.494
 3970.00    0.29292   0.30352   26.212
 3971.00    0.37328   0.37022   23.056
 3972.00    0.45552   0.44542   18.959
 3973.00    0.52957   0.51806   15.704
 3974.00    0.59662   0.58373   21.990
 3975.00    0.65385   0.64105  116.147
 3976.00    0.70664   0.69175  103.480
 3977.00    0.75545   0.73760   94.163
 3978.00    0.80539   0.77807   87.580
 3979.00    0.84315   0.80798   82.682
 3980.00    0.86793   0.82153   -1.000
 3981.00    0.86879   0.82111   -1.000
 3982.00    0.84768   0.81703   75.160
 3983.00    0.84713   0.82083   76.088
 3984.00    0.86870   0.83503   76.752
 3985.00    0.88510   0.85277   75.730
 3986.00    0.89263   0.86905   74.167
 3987.00    0.90354   0.88257   72.814
 3988.00    0.91364   0.89142   71.550
 3989.00    0.91712   0.89653   70.452
 3990.00    0.93248   0.90297   70.168
 3991.00    0.95399   0.91356   70.157
 3992.00    0.96366   0.92498   69.209
 3993.00    0.95770   0.92959   67.547
 3994.00    0.94297   0.92163   66.893
 3995.00    0.92234   0.90372   68.072
 3996.00    0.89892   0.88743   69.706
 3997.00    0.89695   0.88512   71.203
 3998.00    0.91756   0.90003   72.256
 3999.00    0.94285   0.92405   71.932
 4000.00    0.96731   0.94582   69.565
 4001.00    0.98290   0.95851   66.676
 4002.00    0.99493   0.95689   64.917
 4003.00    0.98596   0.93674   63.945
 4004.00    0.93987   0.90421   63.899
 4005.00    0.89738   0.88077   66.410
 4006.00    0.89621   0.88446   70.596
 4007.00    0.94177   0.91166   72.538
 4008.00    0.98177   0.94346   70.383
 4009.00    1.00107   0.96516   66.764
 4010.00    1.00522   0.97484   64.855
 4011.00    1.00979   0.97667   64.094
 4012.00    1.01298   0.97672   63.595
 4013.00    1.00902   0.97968   63.658
 4014.00    1.00621   0.98457   64.087
 4015.00    1.00493   0.98728   64.102
 4016.00    1.00000   0.98708   63.431
 4017.00    0.98944   0.98826   63.091
 4018.00    0.99087   0.99383   63.762
 4019.00    1.00486   1.00072   64.122
 4020.00    1.00627   1.00350   63.515
 4021.00    1.00288   0.99983   62.963
 4022.00    0.99889   0.99150   63.443
 4023.00    0.98785   0.98226   64.174
 4024.00    0.98214   0.97855   64.556
 4025.00    0.99461   0.98757   65.013
 4026.00    1.02322   1.00744   64.675
 4027.00    1.04859   1.02248   62.742
 4028.00    1.04593   1.01525   60.870
 4029.00    1.01348   0.98277   60.352
 4030.00    0.96351   0.93989   61.683
 4031.00    0.92237   0.90643   64.924
 4032.00    0.91633   0.89325   68.778
 4033.00    0.92824   0.90153   70.838
 4034.00    0.94880   0.92838   70.959
 4035.00    0.98022   0.96805   69.457
 4036.00    1.02203   1.01012   66.684
 4037.00    1.04932   1.04094   63.360
 4038.00    1.06219   1.05066   60.589
 4039.00    1.05550   1.04231   59.213
 4040.00    1.03207   1.02832   59.596
 4041.00    1.02056   1.01532   60.961
 4042.00    1.01298   0.99266   62.119
 4043.00    0.98002   0.94727   62.634
 4044.00    0.91044   0.89079   63.955
 4045.00    0.84938   0.85800   68.283
 4046.00    0.86279   0.87350   74.562
 4047.00    0.93673   0.92539   76.829
 4048.00    0.99772   0.98067   71.738
 4049.00    1.02324   1.01646   65.717
 4050.00    1.03075   1.02857   62.595
 4051.00    1.02931   1.02333   61.254
 4052.00    1.01211   1.00747   60.997
 4053.00    0.99425   0.98812   61.918
 4054.00    0.98953   0.97177   63.618
 4055.00    0.98465   0.95978   65.016
 4056.00    0.97232   0.95136   65.826
 4057.00    0.96135   0.95070   66.310
 4058.00    0.96418   0.96347   66.851
 4059.00    0.98876   0.98318   66.989
 4060.00    1.01344   0.98989   65.525
 4061.00    0.99266   0.96743   63.521
 4062.00    0.93367   0.92500   63.165
 4063.00    0.89732   0.89181   65.599
 4064.00    0.90220   0.88457   70.428
 4065.00    0.92861   0.89779   73.036
 4066.00    0.95413   0.91973   70.813
 4067.00    0.97109   0.94260   67.938
 4068.00    1.00036   0.95935   66.248
 4069.00    1.02299   0.95972   -1.000
 4070.00    1.00022   0.94143   -1.000
 4071.00    0.96209   0.92236   63.133
 4072.00    0.95646   0.92164   65.862
 4073.00    0.97632   0.93372   67.587
 4074.00    0.98242   0.93518   66.257
 4075.00    0.95148   0.91197   64.548
 4076.00    0.89540   0.87773   65.509
 4077.00    0.85641   0.86031   69.651
 4078.00    0.87250   0.87660   74.284
 4079.00    0.93259   0.91992   74.662
 4080.00    0.98948   0.96429   71.061
 4081.00    1.01764   0.98665   66.110
 4082.00    1.00536   0.98207   62.511
 4083.00    0.97627   0.96406   61.745
 4084.00    0.96370   0.95250   63.250
 4085.00    0.96636   0.95971   65.014
 4086.00    0.98978   0.98378   65.251
 4087.00    1.02713   1.01180   63.769
 4088.00    1.05497   1.03023   61.468
 4089.00    1.05514   1.03248   59.239
 4090.00    1.04761   1.02192   58.136
 4091.00    1.03433   1.00795   58.791
 4092.00    1.01959   0.99551   59.993
 4093.00    1.01161   0.98113   60.951
 4094.00    0.99674   0.95981   61.397
 4095.00    0.96541   0.93178   61.827
 4096.00    0.93606   0.90290   63.606
 4097.00    0.92530   0.87571   -1.000
 4098.00    0.90882   0.84165   -1.000
 4099.00    0.85346   0.79201   -1.000
 4100.00    0.76877   0.73706   70.631
 4101.00    0.71690   0.70298   75.547
 4102.00    0.73431   0.71123   82.042
 4103.00    0.78833   0.76036   85.000
 4104.00    0.85736   0.82578   81.013
 4105.00    0.92129   0.88201   74.257
 4106.00    0.95734   0.91791   69.147
 4107.00    0.96738   0.93388   66.050
 4108.00    0.95989   0.93609   64.675
 4109.00    0.94919   0.93364   64.730
 4110.00    0.94266   0.93490   65.604
 4111.00    0.95544   0.94470   66.797
 4112.00    0.98402   0.96244   67.120
 4113.00    1.00384   0.98329   65.991
 4114.00    1.01301   1.00104   64.611
 4115.00    1.01947   1.00978   63.551
 4116.00    1.02134   1.00538   62.704
 4117.00    1.00891   0.98984   62.429
 4118.00    0.98390   0.97247   63.122
 4119.00    0.96887   0.96349   64.777
 4120.00    0.97734   0.96507   66.492
 4121.00    0.98224   0.97111   66.658
 4122.00    0.98030   0.97759   65.835
 4123.00    0.98983   0.98539   65.423
 4124.00    1.00809   0.99352   65.233
 4125.00    1.01615   0.99673   64.347
 4126.00    1.00488   0.99099   63.519
 4127.00    0.98798   0.97962   63.703
 4128.00    0.96936   0.96974   64.772
 4129.00    0.96358   0.96146   65.888
 4130.00    0.95897   0.94857   66.337
 4131.00    0.94320   0.93090   66.841
 4132.00    0.92889   0.91886   68.139
 4133.00    0.92088   0.92443   70.332
 4134.00    0.93726   0.94880   71.847
 4135.00    0.97679   0.98154   71.073
 4136.00    1.00439   1.01148   68.215
 4137.00    1.02680   1.03389   65.167
 4138.00    1.04994   1.04745   63.450
 4139.00    1.05496   1.04805   62.461
 4140.00    1.03778   1.02852   61.739
 4141.00    1.00029   0.98770   62.032
 4142.00    0.95286   0.94163   64.023
 4143.00    0.91839   0.91715   68.142
 4144.00    0.92246   0.92738   73.270
 4145.00    0.96237   0.96070   74.769
 4146.00    1.00081   0.99227   71.240
 4147.00    1.00944   1.00540   67.477
 4148.00    0.99526   1.00191   65.625
 4149.00    0.97546   0.99353   65.644
 4150.00    0.97046   0.98845   67.149
 4151.00    0.97407   0.98581   68.697
 4152.00    0.96775   0.98062   69.058
 4153.00    0.95748   0.97192   68.557
 4154.00    0.94475   0.96478   68.518
 4155.00    0.94385   0.96506   69.355
 4156.00    0.95610   0.97467   69.513
 4157.00    0.96703   0.99122   68.093
 4158.00    0.99449   1.00995   68.042
 4159.00    1.03646   1.02610   67.615
 4160.00    1.03481   1.03739   65.786
 4161.00    1.01601   1.04467   66.154
 4162.00    1.01454   1.04950   65.154
 4163.00    1.02666   1.05101   63.544
 4164.00    1.02546   1.04693   63.238
 4165.00    1.01436   1.03622   63.869
 4166.00    1.00554   1.02299   64.912
 4167.00    0.99104   1.01547   66.043
 4168.00    0.98803   1.01502   67.393
 4169.00    0.99656   1.01115   67.892
 4170.00    0.98257   0.99065   67.107
 4171.00    0.94289   0.95530   66.542
 4172.00    0.90314   0.92487   68.352
 4173.00    0.89051   0.91716   72.580
 4174.00    0.90904   0.93160   75.612
 4175.00    0.93383   0.95169   74.711
 4176.00    0.94829   0.96384   71.937
 4177.00    0.94716   0.96945   70.180
 4178.00    0.94830   0.97592   70.346
 4179.00    0.95885   0.98456   70.537
 4180.00    0.96717   0.98995   69.940
 4181.00    0.96978   0.99001   68.959
 4182.00    0.96509   0.99240   68.545
 4183.00    0.97313   1.00186   68.355
 4184.00    0.99729   1.01038   67.382
 4185.00    0.99845   1.00731   66.061
 4186.00    0.97382   0.99333   65.313
 4187.00    0.95822   0.98209   66.130
 4188.00    0.96088   0.98309   68.333
 4189.00    0.96905   0.99148   69.434
 4190.00    0.98177   1.00090   68.425
 4191.00    0.99510   1.01134   67.216
 4192.00    1.01134   1.02176   66.679
 4193.00    1.01894   1.02466   65.587
 4194.00    0.99850   1.01085   64.328
 4195.00    0.96460   0.98226   64.369
 4196.00    0.93463   0.95218   66.820
 4197.00    0.91739   0.93188   69.989
 4198.00    0.91753   0.92353   71.914
 4199.00    0.92892   0.92336   72.788
 4200.00    0.93634   0.92706   72.599
 4201.00    0.93449   0.93226   71.652
 4202.00    0.93621   0.94120   70.798
 4203.00    0.94959   0.95725   70.550
 4204.00    0.96242   0.97817   69.869
 4205.00    0.97137   0.99928   68.940
 4206.00    0.99099   1.01860   68.188
 4207.00    1.01469   1.03290   66.705
 4208.00    1.02545   1.03826   65.144
 4209.00    1.02424   1.03702   64.192
 4210.00    1.01641   1.03599   64.091
 4211.00    1.01100   1.03776   64.248
 4212.00    1.01394   1.03453   63.995
 4213.00    0.99732   1.01708   63.795
 4214.00    0.95590   0.99153   64.737
 4215.00    0.92780   0.97600   -1.000
 4216.00    0.93691   0.98558   -1.000
 4217.00    0.98246   1.01686   70.422
 4218.00    1.02750   1.05138   67.202
 4219.00    1.05135   1.07456   63.275
 4220.00    1.06646   1.08064   60.847
 4221.00    1.06040   1.06615   59.514
 4222.00    1.02028   1.02863   59.275
 4223.00    0.96678   0.96903   60.439
 4224.00    0.90641   0.89683   63.540
 4225.00    0.82925   0.83474   68.624
 4226.00    0.77749   0.81294   76.226
 4227.00    0.80252   0.84745   -1.000
 4228.00    0.89203   0.92268   -1.000
 4229.00    0.98564   0.99827   80.125
 4230.00    1.03194   1.03992   70.028
 4231.00    1.03696   1.04406   64.061
 4232.00    1.01849   1.02731   61.705
 4233.00    0.99629   1.00504   61.886
 4234.00    0.98740   0.98643   63.422
 4235.00    0.97477   0.97509   64.778
 4236.00    0.95734   0.97123   65.653
 4237.00    0.94994   0.97615   67.127
 4238.00    0.96232   0.99005   67.797
 4239.00    0.97820   1.00916   66.890
 4240.00    0.99377   1.02846   65.478
 4241.00    1.00878   1.04483   64.466
 4242.00    1.01429   1.05799   -1.000
 4243.00    1.01975   1.06874   -1.000
 4244.00    1.02705   1.07307   -1.000
 4245.00    1.03452   1.06139   60.982
 4246.00    1.01256   1.03223   60.273
 4247.00    0.96612   0.99744   61.621
 4248.00    0.93657   0.97130   64.417
 4249.00    0.93105   0.96170   66.606
 4250.00    0.94225   0.96945   67.944
 4251.00    0.97228   0.98602   68.312
 4252.00    0.99671   0.99685   67.619
 4253.00    0.99452   0.99669   65.612
 4254.00    0.97530   0.99536   64.437
 4255.00    0.97940   1.00467   65.306
 4256.00    1.01100   1.01916   66.346
 4257.00    1.01515   1.01831   64.845
 4258.00    0.97680   0.99422   62.849
 4259.00    0.93875   0.96446   63.274
 4260.00    0.91759   0.95599   66.146
 4261.00    0.94033   0.98030   -1.000
 4262.00    0.99424   1.02532   69.676
 4263.00    1.04092   1.06754   66.358
 4264.00    1.05829   1.08969   62.459
 4265.00    1.05846   1.09024   59.990
 4266.00    1.04209   1.07605   59.015
 4267.00    1.01189   1.05047   59.245
 4268.00    0.98843   1.01390   60.555
 4269.00    0.95999   0.96831   62.562
 4270.00    0.91203   0.92202   64.605
 4271.00    0.86269   0.88921   67.630
 4272.00    0.85807   0.88052   72.106
 4273.00    0.87006   0.89523   75.465
 4274.00    0.88629   0.92596   -1.000
 4275.00    0.92475   0.96713   -1.000
 4276.00    0.97382   1.01099   71.232
 4277.00    1.00482   1.04111   67.536
 4278.00    1.00406   1.04495   63.468
 4279.00    0.97923   1.02785   -1.000
 4280.00    0.95175   1.00918   -1.000
 4281.00    0.94840   1.00385   -1.000
 4282.00    0.95755   1.00753   -1.000
 4283.00    0.97159   1.00712   66.406
 4284.00    0.96711   0.99720   65.522
 4285.00    0.93625   0.98115   -1.000
 4286.00    0.91646   0.96308   -1.000
 4287.00    0.89684   0.94103   -1.000
 4288.00    0.87303   0.91346   70.006
 4289.00    0.84548   0.89114   -1.000
 4290.00    0.83851   0.89036   -1.000
 4291.00    0.87345   0.91369   -1.000
 4292.00    0.92094   0.94316   76.070
 4293.00    0.94305   0.95745   71.786
 4294.00    0.93202   0.95219   68.101
 4295.00    0.91659   0.93453   67.475
 4296.00    0.88252   0.90615   68.313
 4297.00    0.83775   0.86583   69.586
 4298.00    0.78460   0.82016   71.734
 4299.00    0.73507   0.78272   -1.000
 4300.00    0.71906   0.76412   -1.000
 4301.00    0.72524   0.76436   -1.000
 4302.00    0.73350   0.77519   -1.000
 4303.00    0.74278   0.78782   -1.000
 4304.00    0.75384   0.79471   -1.000
 4305.00    0.76299   0.78901   82.370
 4306.00    0.74787   0.77044   81.765
 4307.00    0.71987   0.74938   82.863
 4308.00    0.69570   0.74125   -1.000
 4309.00    0.70446   0.75441   -1.000
 4310.00    0.73267   0.78505   -1.000
 4311.00    0.74874   0.82322   -1.000
 4312.00    0.78273   0.86368   -1.000
 4313.00    0.83173   0.91228   -1.000
 4314.00    0.89869   0.97489   -1.000
 4315.00    0.98599   1.04586   -1.000
 4316.00    1.07196   1.10818   66.320
 4317.00    1.12165   1.14434   60.679
 4318.00    1.11341   1.15024   56.832
 4319.00    1.09912   1.13461   55.475
 4320.00    1.08274   1.10531   55.790
 4321.00    1.04136   1.06283   56.811
 4322.00    0.98478   1.00603   58.293
 4323.00    0.91503   0.94203   60.546
 4324.00    0.84609   0.89311   -1.000
 4325.00    0.82573   0.88718   -1.000
 4326.00    0.87816   0.93099   -1.000
 4327.00    0.96578   1.00004   75.035
 4328.00    1.02315   1.05806   68.971
 4329.00    1.03906   1.08593   -1.000
 4330.00    1.05032   1.09122   58.745
 4331.00    1.04530   1.09175   58.124
 4332.00    1.05290   1.09645   58.274
 4333.00    1.06228   1.10046   57.727
 4334.00    1.05169   1.09178   56.797
 4335.00    1.03108   1.05801   56.363
 4336.00    0.98151   0.99434   56.555
 4337.00    0.91038   0.90962   58.278
 4338.00    0.83158   0.82771   62.674
 4339.00    0.76123   0.77626   68.822
 4340.00    0.75709   0.77223   75.024
 4341.00    0.78701   0.81496   80.037
 4342.00    0.84999   0.88460   -1.000
 4343.00    0.91553   0.95318   -1.000
 4344.00    0.97125   1.00448   66.276
 4345.00    1.02155   1.03971   62.853
 4346.00    1.03800   1.06676   61.024
 4347.00    1.04840   1.08845   59.544
 4348.00    1.06637   1.09646   58.666
 4349.00    1.06450   1.07846   57.971
 4350.00    1.01671   1.03741   57.294
 4351.00    0.94850   0.99761   58.288
 4352.00    0.92524   0.98680   -1.000
 4353.00    0.95846   1.01042   -1.000
 4354.00    1.00136   1.04907   -1.000
 4355.00    1.03180   1.08116   -1.000
 4356.00    1.04486   1.09734   -1.000
 4357.00    1.05390   1.09804   58.298
 4358.00    1.04848   1.09138   57.438
 4359.00    1.04176   1.09115   -1.000
 4360.00    1.05704   1.10451   -1.000
 4361.00    1.07929   1.12577   59.228
 4362.00    1.09215   1.14570   -1.000
 4363.00    1.09707   1.15932   -1.000
 4364.00    1.10735   1.16359   -1.000
 4365.00    1.10307   1.15389   -1.000
 4366.00    1.08146   1.12998   55.035
 4367.00    1.05475   1.10328   55.466
 4368.00    1.04101   1.08693   57.363
 4369.00    1.04484   1.08174   59.106
 4370.00    1.04561   1.07878   59.360
 4371.00    1.04220   1.06850   58.772
 4372.00    1.03410   1.04626   58.504
 4373.00    1.00561   1.01675   58.631
 4374.00    0.97500   0.99663   59.707
 4375.00    0.97381   1.00233   62.243
 4376.00    1.00429   1.03333   64.088
 4377.00    1.04923   1.07007   63.291
 4378.00    1.07185   1.09039   60.398
 4379.00    1.06716   1.08462   57.844
 4380.00    1.06400   1.05125   57.264
 4381.00    1.03014   0.99067   57.844
 4382.00    0.94261   0.91836   59.337
 4383.00    0.86458   0.86850   63.136
 4384.00    0.84871   0.86826   70.438
 4385.00    0.90186   0.91355   76.621
 4386.00    0.97259   0.97095   74.910
 4387.00    1.01399   1.00855   67.618
 4388.00    1.02621   1.02055   62.306
 4389.00    1.01087   1.02075   60.987
 4390.00    0.99953   1.02353   61.279
 4391.00    1.01711   1.03236   61.861
 4392.00    1.04310   1.04060   61.675
 4393.00    1.04289   1.04185   60.358
 4394.00    1.02915   1.04200   59.428
 4395.00    1.02908   1.05367   60.153
 4396.00    1.05728   1.07553   61.155
 4397.00    1.08727   1.08998   60.175
 4398.00    1.08152   1.08335   57.542
 4399.00    1.05181   1.06339   56.533
 4400.00    1.02569   1.04918   57.773
 4401.00    1.03361   1.04444   59.891
 4402.00    1.05758   1.03545   61.026
 4403.00    1.03848   1.01310   60.082
 4404.00    0.99748   0.98866   59.745
 4405.00    0.98597   0.98204   62.366
 4406.00    1.00658   0.99577   65.349
 4407.00    1.02772   1.01745   65.018
 4408.00    1.02659   1.04272   63.000
 4409.00    1.05570   1.07571   62.242
 4410.00    1.09750   1.11278   61.244
 4411.00    1.13128   1.13741   58.727
 4412.00    1.13879   1.13397   56.328
 4413.00    1.12383   1.10355   54.747
 4414.00    1.07301   1.06395   54.671
 4415.00    1.02886   1.04049   56.663
 4416.00    1.02792   1.04804   59.760
 4417.00    1.06282   1.07986   61.238
 4418.00    1.10469   1.11634   60.312
 4419.00    1.13309   1.13920   58.012
 4420.00    1.13849   1.14012   55.770
 4421.00    1.11313   1.12574   54.688
 4422.00    1.09457   1.11228   55.375
 4423.00    1.08913   1.10911   56.800
 4424.00    1.09534   1.11295   57.476
 4425.00    1.08975   1.11698   57.089
 4426.00    1.07916   1.11950   56.931
 4427.00    1.08508   1.12152   57.187
 4428.00    1.09994   1.12213   57.299
 4429.00    1.10667   1.12065   56.904
 4430.00    1.09089   1.11944   56.872
 4431.00    1.09191   1.11871   57.405
 4432.00    1.09267   1.11082   57.368
 4433.00    1.07747   1.09120   56.696
 4434.00    1.04578   1.07129   56.795
 4435.00    1.03156   1.07154   59.030
 4436.00    1.06008   1.10082   61.469
 4437.00    1.12191   1.14439   61.271
 4438.00    1.16215   1.17583   58.336
 4439.00    1.16711   1.17694   54.946
 4440.00    1.14084   1.14974   53.192
 4441.00    1.10073   1.11311   53.570
 4442.00    1.06416   1.08988   55.576
 4443.00    1.05608   1.09373   58.238
 4444.00    1.07998   1.12177   60.162
 4445.00    1.12130   1.15687   59.661
 4446.00    1.14005   1.18076   57.225
 4447.00    1.14378   1.18870   55.084
 4448.00    1.14278   1.18770   54.352
 4449.00    1.13323   1.18350   54.450
 4450.00    1.12379   1.17703   -1.000
 4451.00    1.13395   1.16699   55.293
 4452.00    1.13437   1.14934   55.615
 4453.00    1.11004   1.12089   55.316
 4454.00    1.05953   1.08919   56.106
 4455.00    1.03252   1.06974   58.400
 4456.00    1.04598   1.06790   60.806
 4457.00    1.06748   1.07424   61.458
 4458.00    1.06632   1.07736   60.283
 4459.00    1.05716   1.07472   59.457
 4460.00    1.05671   1.07232   59.618
 4461.00    1.06367   1.07839   60.010
 4462.00    1.07336   1.09638   60.638
 4463.00    1.09725   1.12025   60.784
 4464.00    1.12596   1.13887   59.213
 4465.00    1.13334   1.14572   57.023
 4466.00    1.12640   1.14162   56.010
 4467.00    1.11411   1.13152   56.022
 4468.00    1.09887   1.12277   56.194
 4469.00    1.09171   1.12380   56.969
 4470.00    1.10232   1.14006   57.935
 4471.00    1.13343   1.16817   57.985
 4472.00    1.16924   1.19774   56.885
 4473.00    1.19341   1.22034   55.000
 4474.00    1.20522   1.23438   53.178
 4475.00    1.21359   1.24408   51.971
 4476.00    1.21805   1.25116   51.699
 4477.00    1.22314   1.24762   51.705
 4478.00    1.21454   1.22385   51.251
 4479.00    1.17750   1.18348   51.123
 4480.00    1.13274   1.14593   51.926
 4481.00    1.09999   1.13227   54.035
 4482.00    1.10790   1.15027   56.330
 4483.00    1.14723   1.18971   57.390
 4484.00    1.18693   1.22943   56.235
 4485.00    1.21035   1.25116   53.819
 4486.00    1.21267   1.24761   51.990
 4487.00    1.19582   1.22324   51.173
 4488.00    1.16006   1.19279   51.539
 4489.00    1.13235   1.17477   52.946
 4490.00    1.13883   1.17796   54.867
 4491.00    1.17085   1.19268   55.691
 4492.00    1.19359   1.19911   54.795
 4493.00    1.17884   1.18798   53.403
 4494.00    1.14110   1.17028   52.926
 4495.00    1.12352   1.16390   53.982
 4496.00    1.13146   1.17587   55.594
 4497.00    1.15993   1.19812   56.387
 4498.00    1.19822   1.21617   55.392
 4499.00    1.20452   1.22157   53.480
 4500.00    1.19531   1.21944   52.194
 4501.00    1.18905   1.22372   51.950
 4502.00    1.20364   1.24161   52.562
 4503.00    1.22659   1.26653   52.485
 4504.00    1.24961   1.28594   50.944
 4505.00    1.25548   1.29179   49.340
 4506.00    1.24885   1.28546   48.758
 4507.00    1.24667   1.27553   49.288
 4508.00    1.24459   1.27026   50.235
 4509.00    1.23660   1.27080   50.604
 4510.00    1.24214   1.27114   50.534
 4511.00    1.23918   1.26428   50.129
 4512.00    1.21810   1.24967   49.936
 4513.00    1.20426   1.23355   50.517
 4514.00    1.19496   1.22191   51.534
 4515.00    1.19229   1.21624   52.330
 4516.00    1.19059   1.21377   52.505
 4517.00    1.18414   1.21217   52.257
 4518.00    1.18119   1.21407   52.365
 4519.00    1.19085   1.22158   52.980
 4520.00    1.20981   1.22920   53.029
 4521.00    1.20934   1.22865   52.033
 4522.00    1.18809   1.21780   51.227
 4523.00    1.16460   1.20141   51.653
 4524.00    1.14960   1.18335   52.907
 4525.00    1.13387   1.16231   53.849
 4526.00    1.11639   1.13670   54.359
 4527.00    1.10339   1.11052   55.444
 4528.00    1.08610   1.09366   57.167
 4529.00    1.08400   1.09353   58.596
 4530.00    1.09870   1.10696   59.029
 4531.00    1.11952   1.12153   58.422
 4532.00    1.12599   1.12445   57.354
 4533.00    1.11055   1.11469   56.450
 4534.00    1.08427   1.10644   56.560
 4535.00    1.08063   1.11797   58.320
 4536.00    1.12764   1.15261   59.801
 4537.00    1.19069   1.19282   58.350
 4538.00    1.22218   1.21779   54.870
 4539.00    1.22141   1.22149   51.963
 4540.00    1.20101   1.21402   51.005
 4541.00    1.19171   1.20842   51.734
 4542.00    1.19748   1.20807   52.786
 4543.00    1.19596   1.20758   52.595
 4544.00    1.18107   1.20248   52.230
 4545.00    1.16548   1.19458   55.164
 4546.00    1.16963   1.18656   -2.000
 4547.00    1.11737   1.17615   -2.000
 4548.00    0.47060   1.16257   -2.000
 4549.00   -0.06305   1.15296    0.000
 4550.00    0.05250   1.15460   -1.000
 4551.00    0.59990   1.16363   -1.000
 4552.00    0.61092   1.16795   -1.000
 4553.00    0.53702   1.16316   -1.000
 4554.00    1.18322   1.15847   54.782
 4555.00    1.13280   1.16624   55.605
 4556.00    1.16453   1.18968   55.854
 4557.00    1.20051   1.21929   54.721
 4558.00    1.22199   1.24277   52.624
 4559.00    1.22919   1.25593   50.708
 4560.00    1.23124   1.25985   50.085
 4561.00    1.23520   1.25376   50.369
 4562.00    1.22134   1.23659   50.328
 4563.00    1.19242   1.21363   50.550
 4564.00    1.17398   1.19752   51.808
 4565.00    1.16910   1.19870   53.035
 4566.00    1.19906   1.21620   53.658
 4567.00    1.21969   1.23811   52.853
 4568.00    1.23963   1.25016   51.463
 4569.00    1.22751   1.24585   50.246
 4570.00    1.19561   1.23004   49.966
 4571.00    1.18285   1.21546   50.693
 4572.00    1.19098   1.21416   52.030
 4573.00    1.21519   1.22686   53.101
 4574.00    1.23361   1.24227   52.410
 4575.00    1.23085   1.24967   50.909
 4576.00    1.22013   1.24693   50.355
 4577.00    1.21648   1.23557   50.455
 4578.00    1.20528   1.21658   50.708
 4579.00    1.18613   1.19339   51.102
 4580.00    1.16061   1.17374   52.118
 4581.00    1.14595   1.16450   53.640
 4582.00    1.15669   1.16498   54.510
 4583.00    1.16649   1.16917   54.190
 4584.00    1.16828   1.17344   53.455
 4585.00    1.16445   1.17953   53.172
 4586.00    1.18030   1.19186   53.388
 4587.00    1.20355   1.21088   53.554
 4588.00    1.22109   1.22894   52.645
 4589.00    1.21918   1.23687   51.273
 4590.00    1.21284   1.23205   50.364
 4591.00    1.19588   1.21845   50.471
 4592.00    1.18062   1.20379   51.285
 4593.00    1.18513   1.19490   52.245
 4594.00    1.18713   1.19250   53.018
 4595.00    1.19428   1.19359   52.942
 4596.00    1.20841   1.19713   52.472
 4597.00    1.20894   1.20208   52.106
 4598.00    1.20516   1.20540   51.985
 4599.00    1.19731   1.20511   51.876
 4600.00    1.19438   1.20265   51.850
 4601.00    1.18499   1.20142   52.339
 4602.00    1.18552   1.20305   52.758
 4603.00    1.19495   1.20590   52.776
 4604.00    1.20419   1.20901   52.175
 4605.00    1.21458   1.21544   51.693
 4606.00    1.22171   1.22906   51.787
 4607.00    1.23278   1.24900   51.615
 4608.00    1.24405   1.26860   50.955
 4609.00    1.26194   1.27980   49.911
 4610.00    1.26456   1.27883   48.913
 4611.00    1.25130   1.26897   48.483
 4612.00    1.23715   1.25792   48.809
 4613.00    1.22253   1.25248   49.487
 4614.00    1.22700   1.25446   49.994
 4615.00    1.23532   1.25950   50.218
 4616.00    1.23683   1.26196   49.910
 4617.00    1.23427   1.26028   49.492
 4618.00    1.22477   1.25725   49.387
 4619.00    1.22782   1.25737   49.752
 4620.00    1.23751   1.26270   50.060
 4621.00    1.25043   1.27034   49.925
 4622.00    1.26597   1.27486   49.377
 4623.00    1.26249   1.27378   48.690
 4624.00    1.25389   1.26953   48.736
 4625.00    1.25011   1.26558   48.861
 4626.00    1.24135   1.26328   49.008
 4627.00    1.24521   1.26211   49.431
 4628.00    1.24435   1.26155   49.511
 4629.00    1.23022   1.26233   49.529
 4630.00    1.23440   1.26477   49.838
 4631.00    1.25487   1.26634   49.879
 4632.00    1.25240   1.26354   49.562
 4633.00    1.23217   1.25613   49.086
 4634.00    1.22753   1.24727   49.421
 4635.00    1.22836   1.23907   50.147
 4636.00    1.22280   1.23083   50.603
 4637.00    1.21121   1.22275   50.591
 4638.00    1.20601   1.21768   51.065
 4639.00    1.21055   1.21915   51.691
 4640.00    1.22857   1.22866   51.836
 4641.00    1.25501   1.24232   51.632
 4642.00    1.26610   1.25163   50.655
 4643.00    1.25341   1.24926   49.471
 4644.00    1.24609   1.23371   48.945
 4645.00    1.22883   1.20948   49.290
 4646.00    1.20122   1.18657   50.315
 4647.00    1.18723   1.17666   51.761
 4648.00    1.19573   1.18462   53.024
 4649.00    1.22168   1.20549   53.019
 4650.00    1.23574   1.22883   51.977
 4651.00    1.23149   1.24399   50.815
 4652.00    1.22773   1.24544   50.229
 4653.00    1.22895   1.23499   50.171
 4654.00    1.21576   1.22047   50.160
 4655.00    1.19005   1.21270   50.873
 4656.00    1.19898   1.22017   52.010
 4657.00    1.21739   1.24355   52.431
 4658.00    1.25635   1.27370   51.756
 4659.00    1.28760   1.29614   49.995
 4660.00    1.28866   1.30066   48.169
 4661.00    1.26690   1.28823   47.268
 4662.00    1.24414   1.26772   47.358
 4663.00    1.23762   1.24637   48.058
 4664.00    1.23485   1.22357   49.244
 4665.00    1.21579   1.19489   50.087
 4666.00    1.17286   1.16331   50.248
 4667.00    1.13452   1.14179   51.287
 4668.00    1.12965   1.14293   53.571
 4669.00    1.16628   1.16600   55.514
 4670.00    1.21091   1.19660   55.213
 4671.00    1.23616   1.22029   53.343
 4672.00    1.23873   1.23254   51.180
 4673.00    1.23816   1.23818   49.978
 4674.00    1.24471   1.24451   49.781
 4675.00    1.25685   1.25317   49.825
 4676.00    1.26423   1.25788   49.690
 4677.00    1.25669   1.25154   48.996
 4678.00    1.24013   1.23457   48.376
 4679.00    1.22510   1.21437   48.776
 4680.00    1.21252   1.19968   49.873
 4681.00    1.20713   1.19639   50.833
 4682.00    1.21531   1.20461   51.621
 4683.00    1.22705   1.21841   51.957
 4684.00    1.25063   1.22992   51.162
 4685.00    1.25854   1.23493   49.910
 4686.00    1.24230   1.23419   49.392
 4687.00    1.24155   1.23082   49.588
 4688.00    1.25014   1.22740   49.629
 4689.00    1.25050   1.22468   49.895
 4690.00    1.23695   1.22253   49.881
 4691.00    1.22863   1.22234   49.930
 4692.00    1.24184   1.22710   50.281
 4693.00    1.26533   1.23744   50.284
 4694.00    1.27387   1.24919   49.629
 4695.00    1.28672   1.25560   48.837
 4696.00    1.27895   1.25089   47.782
 4697.00    1.26166   1.23444   47.299
 4698.00    1.23548   1.21317   47.712
 4699.00    1.22272   1.19604   49.166
 4700.00    1.22205   1.18493   50.550
 4701.00    1.21010   1.17649   50.968
 4702.00    1.19132   1.17136   50.594
 4703.00    1.18280   1.17361   51.081
 4704.00    1.20033   1.18256   51.944
 4705.00    1.22607   1.19072   52.028
 4706.00    1.22210   1.19090   50.996
 4707.00    1.19996   1.18406   50.424
 4708.00    1.18748   1.17871   51.247
 4709.00    1.18551   1.18289   52.235
 4710.00    1.21742   1.19679   52.619
 4711.00    1.24833   1.21213   52.153
 4712.00    1.25846   1.21893   50.556
 4713.00    1.24308   1.21560   49.277
 4714.00    1.23121   1.21193   48.945
 4715.00    1.23591   1.21827   49.519
 4716.00    1.24817   1.23524   50.382
 4717.00    1.26732   1.25599   50.215
 4718.00    1.27760   1.27333   49.166
 4719.00    1.28570   1.28340   48.294
 4720.00    1.28777   1.28547   48.045
 4721.00    1.27351   1.28157   47.882
 4722.00    1.27081   1.27702   47.779
 4723.00    1.27039   1.27668   48.214
 4724.00    1.27853   1.27765   48.484
 4725.00    1.28059   1.27051   48.138
 4726.00    1.25897   1.24956   47.665
 4727.00    1.23204   1.21993   47.887
 4728.00    1.22207   1.19481   49.184
 4729.00    1.20793   1.18440   51.023
 4730.00    1.20657   1.18869   51.978
 4731.00    1.22015   1.20153   51.675
 4732.00    1.22513   1.21706   51.141
 4733.00    1.23832   1.23063   50.725
 4734.00    1.25445   1.23798   50.117
 4735.00    1.25690   1.23803   49.709
 4736.00    1.24536   1.23520   49.435
 4737.00    1.24038   1.23579   49.241
 4738.00    1.25267   1.24134   49.773
 4739.00    1.25895   1.24734   49.734
 4740.00    1.25513   1.24969   49.116
 4741.00    1.25534   1.25022   49.204
 4742.00    1.26839   1.25239   49.484
 4743.00    1.27699   1.25608   49.489
 4744.00    1.27254   1.26061   49.051
 4745.00    1.26759   1.26697   48.569
 4746.00    1.27522   1.27506   48.699
 4747.00    1.28136   1.28324   48.698
 4748.00    1.27725   1.28988   48.297
 4749.00    1.27775   1.29387   47.838
 4750.00    1.27840   1.29451   47.777
 4751.00    1.27267   1.29075   47.856
 4752.00    1.27008   1.28218   47.914
 4753.00    1.25958   1.27091   48.301
 4754.00    1.24259   1.26080   48.849
 4755.00    1.24184   1.25545   49.242
 4756.00    1.24295   1.25656   49.536
 4757.00    1.24718   1.26288   49.450
 4758.00    1.25646   1.27097   49.677
 4759.00    1.25598   1.27610   50.027
 4760.00    1.25530   1.27289   50.020
 4761.00    1.24005   1.25888   49.606
 4762.00    1.21748   1.23813   49.614
 4763.00    1.20356   1.21864   50.483
 4764.00    1.20289   1.20615   51.723
 4765.00    1.20900   1.20205   52.299
 4766.00    1.21779   1.20701   52.327
 4767.00    1.22914   1.22211   52.186
 4768.00    1.25430   1.24474   51.772
 4769.00    1.26857   1.26654   50.994
 4770.00    1.26589   1.27862   49.848
 4771.00    1.25642   1.28036   49.250
 4772.00    1.25057   1.28040   49.405
 4773.00    1.25478   1.28690   49.845
 4774.00    1.27992   1.29918   50.199
 4775.00    1.28903   1.31038   49.516
 4776.00    1.29737   1.31600   48.490
 4777.00    1.29308   1.31644   48.231
 4778.00    1.27893   1.31270   48.298
 4779.00    1.27156   1.30532   48.460
 4780.00    1.25804   1.29642   48.806
 4781.00    1.25861   1.28822   49.348
 4782.00    1.25510   1.28102   49.610
 4783.00    1.25031   1.27446   49.735
 4784.00    1.24898   1.26844   49.998
 4785.00    1.23848   1.26181   50.378
 4786.00    1.23308   1.25394   50.347
 4787.00    1.23297   1.24756   50.555
 4788.00    1.23342   1.24598   51.063
 4789.00    1.23496   1.24924   51.317
 4790.00    1.24549   1.25686   51.230
 4791.00    1.25700   1.26986   50.962
 4792.00    1.26534   1.28867   50.627
 4793.00    1.28223   1.31084   50.062
 4794.00    1.29608   1.33005   49.201
 4795.00    1.30551   1.33898   48.105
 4796.00    1.29853   1.33379   47.344
 4797.00    1.27783   1.31607   47.255
 4798.00    1.25924   1.29370   47.803
 4799.00    1.24528   1.27879   48.793
 4800.00    1.25001   1.27960   49.678
 4801.00    1.27796   1.29387   50.173
 4802.00    1.28581   1.31048   49.633
 4803.00    1.28995   1.31714   48.618
 4804.00    1.26257   1.30996   47.993
 4805.00    1.25258   1.29567   48.147
 4806.00    1.25262   1.28358   48.823
 4807.00    1.25689   1.27829   49.433
 4808.00    1.25910   1.27964   49.839
 4809.00    1.26401   1.28550   49.793
 4810.00    1.26486   1.29294   49.655
 4811.00    1.27511   1.29922   49.410
 4812.00    1.27736   1.30329   48.955
 4813.00    1.26829   1.30626   48.618
 4814.00    1.27611   1.31052   48.388
 4815.00    1.28334   1.31785   48.347
 4816.00    1.29493   1.32769   48.220
 4817.00    1.30417   1.33738   48.035
 4818.00    1.30682   1.34395   47.725
 4819.00    1.29904   1.34583   47.436
 4820.00    1.29773   1.34150   47.261
 4821.00    1.28452   1.32816   47.255
 4822.00    1.26100   1.30647   47.284
 4823.00    1.23934   1.28516   47.777
 4824.00    1.23846   1.27531   49.070
 4825.00    1.26284   1.27988   49.919
 4826.00    1.27935   1.29084   49.718
 4827.00    1.28440   1.29715   48.803
 4828.00    1.27924   1.29483   48.114
 4829.00    1.27152   1.28714   48.390
 4830.00    1.26744   1.27807   48.967
 4831.00    1.25988   1.27028   49.236
 4832.00    1.25453   1.26708   49.234
 4833.00    1.26467   1.27116   49.696
 4834.00    1.26916   1.28072   49.705
 4835.00    1.26368   1.28969   48.870
 4836.00    1.27248   1.29293   48.257
 4837.00    1.27938   1.28945   48.118
 4838.00    1.26288   1.28053   48.220
 4839.00    1.24139   1.26906   48.483
 4840.00    1.23847   1.25976   49.183
 4841.00    1.23917   1.25557   50.029
 4842.00    1.23646   1.25578   50.004
 4843.00    1.24259   1.25991   49.884
 4844.00    1.25388   1.26873   49.619
 4845.00    1.26541   1.27918   49.235
 4846.00    1.26589   1.28346   48.720
 4847.00    1.25854   1.27723   47.967
 4848.00    1.24193   1.26616   47.812
 4849.00    1.24283   1.26044   48.837
 4850.00    1.25447   1.26264   49.513
 4851.00    1.26186   1.26598   49.433
 4852.00    1.25742   1.26201   48.733
 4853.00    1.23800   1.24560   48.670
 4854.00    1.20441   1.21851   48.975
 4855.00    1.17688   1.19065   49.451
 4856.00    1.16733   1.17091   50.987
 4857.00    1.16564   1.15390   52.352
 4858.00    1.13341   1.12041   52.134
 4859.00    1.05698   1.05741   51.676
 4860.00    0.94451   0.97997   53.333
 4861.00    0.87460   0.92779   58.187
 4862.00    0.93053   0.93164   64.988
 4863.00    1.02484   0.98666   67.550
 4864.00    1.10457   1.05970   63.005
 4865.00    1.15153   1.12138   57.407
 4866.00    1.18279   1.16355   54.162
 4867.00    1.18788   1.18918   52.338
 4868.00    1.20425   1.19981   51.292
 4869.00    1.20403   1.19404   50.864
 4870.00    1.17437   1.17425   50.686
 4871.00    1.13970   1.15292   51.200
 4872.00    1.14165   1.14706   52.692
 4873.00    1.17599   1.16260   53.900
 4874.00    1.20425   1.18852   53.311
 4875.00    1.21060   1.21058   51.763
 4876.00    1.21204   1.22586   50.914
 4877.00    1.21629   1.24005   50.546
 4878.00    1.22917   1.25643   50.280
 4879.00    1.24426   1.27060   50.094
 4880.00    1.24639   1.27546   49.343
 4881.00    1.23184   1.26951   48.864
 4882.00    1.22591   1.25810   49.358
 4883.00    1.22023   1.24666   50.175
 4884.00    1.21469   1.23532   50.432
 4885.00    1.20932   1.22328   50.256
 4886.00    1.19798   1.21402   50.566
 4887.00    1.19724   1.20991   51.357
 4888.00    1.20064   1.20576   51.588
 4889.00    1.19367   1.19509   51.294
 4890.00    1.17312   1.18187   51.262
 4891.00    1.16666   1.18167   52.073
 4892.00    1.20113   1.20719   53.200
 4893.00    1.25218   1.25340   52.720
 4894.00    1.29506   1.30209   50.517
 4895.00    1.31389   1.33742   48.176
 4896.00    1.31242   1.35362   46.806
 4897.00    1.30531   1.35286   45.968
 4898.00    1.29979   1.34065   45.783
 4899.00    1.27871   1.32380   45.923
 4900.00    1.26577   1.30902   46.963
 4901.00    1.26869   1.29897   48.065
 4902.00    1.26389   1.29199   48.548
 4903.00    1.25221   1.28864   48.288
 4904.00    1.25853   1.29357   48.385
 4905.00    1.28158   1.30675   48.976
 4906.00    1.29426   1.31792   48.381
 4907.00    1.29329   1.31472   47.338
 4908.00    1.26993   1.29498   47.018
 4909.00    1.23944   1.26809   47.505
 4910.00    1.21298   1.24764   48.691
 4911.00    1.22104   1.24320   50.097
 4912.00    1.24397   1.25473   50.668
 4913.00    1.26392   1.27455   49.943
 4914.00    1.28044   1.29341   49.032
 4915.00    1.29293   1.30282   48.370
 4916.00    1.28686   1.29386   47.746
 4917.00    1.26225   1.26104   47.346
 4918.00    1.19808   1.21019   47.628
 4919.00    1.13995   1.16049   49.380
 4920.00    1.13008   1.13393   52.131
 4921.00    1.16479   1.13900   54.569
 4922.00    1.20290   1.16394   55.074
 4923.00    1.21828   1.19006   53.189
 4924.00    1.21566   1.21031   51.270
 4925.00    1.24048   1.23059   50.564
 4926.00    1.27058   1.25591   50.529
 4927.00    1.28087   1.28266   49.850
 4928.00    1.28611   1.30497   48.524
 4929.00    1.29703   1.32018   47.680
 4930.00    1.30055   1.32531   47.249
 4931.00    1.29738   1.31634   46.930
 4932.00    1.26853   1.29391   46.660
 4933.00    1.23138   1.26760   47.163
 4934.00    1.22210   1.25043   48.490
 4935.00    1.23826   1.24489   50.255
 4936.00    1.25346   1.23941   50.303
 4937.00    1.22792   1.22468   49.373
 4938.00    1.19577   1.20829   49.393
 4939.00    1.19891   1.20757   50.910
 4940.00    1.22911   1.23060   52.290
 4941.00    1.26814   1.26754   51.752
 4942.00    1.28620   1.30065   49.938
 4943.00    1.30206   1.31849   48.346
 4944.00    1.29958   1.32120   47.482
 4945.00    1.28925   1.31656   47.068
 4946.00    1.28306   1.31383   47.122
 4947.00    1.29610   1.31826   47.468
 4948.00    1.30895   1.32824   47.557
 4949.00    1.30553   1.33790   47.107
 4950.00    1.30668   1.34233   46.546
 4951.00    1.31458   1.34060   46.421
 4952.00    1.30142   1.33457   46.226
 4953.00    1.29920   1.32495   46.484
 4954.00    1.29143   1.30739   46.808
 4955.00    1.28301   1.27476   47.360
 4956.00    1.22079   1.22945   47.957
 4957.00    1.17380   1.19247   49.275
 4958.00    1.19080   1.18932   51.874
 4959.00    1.24538   1.22299   53.933
 4960.00    1.29515   1.27040   52.729
 4961.00    1.31126   1.30592   49.641
 4962.00    1.31007   1.31926   47.974
 4963.00    1.31367   1.31396   47.648
 4964.00    1.28874   1.29753   47.891
 4965.00    1.26670   1.27731   48.281
 4966.00    1.25406   1.26118   48.861
 4967.00    1.25596   1.25382   49.918
 4968.00    1.26003   1.25388   50.551
 4969.00    1.26323   1.25872   50.542
 4970.00    1.26701   1.26815   50.388
 4971.00    1.27429   1.28204   50.008
 4972.00    1.28381   1.29792   49.467
 4973.00    1.29774   1.31119   48.936
 4974.00    1.30137   1.31750   48.348
 4975.00    1.29997   1.31505   47.896
 4976.00    1.29781   1.30447   47.709
 4977.00    1.28419   1.28838   48.059
 4978.00    1.26839   1.27086   48.572
 4979.00    1.25087   1.25369   49.238
 4980.00    1.23699   1.23350   50.047
 4981.00    1.20802   1.20651   50.658
 4982.00    1.16776   1.17673   51.378
 4983.00    1.15171   1.15695   53.108
 4984.00    1.16141   1.15856   54.834
 4985.00    1.19369   1.18116   54.787
 4986.00    1.23640   1.21441   53.728
 4987.00    1.26922   1.24516   52.203
 4988.00    1.26730   1.26269   50.538
 4989.00    1.26062   1.26421   49.294
 4990.00    1.24378   1.25697   49.369
 4991.00    1.24207   1.25158   50.118
 4992.00    1.25740   1.25266   50.629
 4993.00    1.25802   1.25806   50.639
 4994.00    1.25873   1.26458   50.175
 4995.00    1.26772   1.27100   49.968
 4996.00    1.27166   1.27494   49.950
 4997.00    1.26577   1.27130   49.686
 4998.00    1.25002   1.25677   49.439
 4999.00    1.23065   1.23483   49.751
 5000.00    1.21675   1.21477   50.428
 5001.00    1.21418   1.20412   51.458
 5002.00    1.22945   1.20149   52.096
 5003.00    1.23908   1.19849   52.120
 5004.00    1.23161   1.18858   51.614
 5005.00    1.19456   1.17448   51.276
 5006.00    1.17658   1.16793   52.033
 5007.00    1.20254   1.17883   53.379
 5008.00    1.24700   1.20298   53.660
 5009.00    1.26451   1.22333   52.316
 5010.00    1.25606   1.22472   50.711
 5011.00    1.21978   1.20556   50.187
 5012.00    1.18693   1.17689   50.865
 5013.00    1.16212   1.15370   52.412
 5014.00    1.16134   1.14565   54.393
 5015.00    1.18505   1.15170   55.651
 5016.00    1.20347   1.16230   55.361
 5017.00    1.20386   1.16918   54.118
 5018.00    1.20110   1.17315   52.985
 5019.00    1.21947   1.17964   52.773
 5020.00    1.23595   1.18919   52.789
 5021.00    1.22997   1.19761   52.179
 5022.00    1.22330   1.20457   51.754
 5023.00    1.23465   1.21378   51.992
 5024.00    1.24535   1.22498   52.106
 5025.00    1.24677   1.23236   51.803
 5026.00    1.23742   1.23233   51.250
 5027.00    1.22857   1.22949   50.908
 5028.00    1.23391   1.23199   51.158
 5029.00    1.25164   1.24302   51.405
 5030.00    1.27087   1.25966   50.927
 5031.00    1.28333   1.27735   49.960
 5032.00    1.30566   1.29079   49.250
 5033.00    1.30502   1.29305   48.447
 5034.00    1.27555   1.27947   47.890
 5035.00    1.23804   1.25461   47.975
 5036.00    1.21537   1.23049   49.531
 5037.00    1.21367   1.21269   51.511
 5038.00    1.21059   1.19360   52.358
 5039.00    1.17830   1.16519   52.537
 5040.00    1.13624   1.13500   53.190
 5041.00    1.12712   1.12362   55.300
 5042.00    1.16717   1.14513   57.560
 5043.00    1.22865   1.19252   57.575
 5044.00    1.26727   1.24484   54.770
 5045.00    1.29749   1.28329   51.370
 5046.00    1.29874   1.29811   49.280
 5047.00    1.27817   1.28865   48.250
 5048.00    1.26908   1.26275   46.391
 5049.00    1.20311   1.23402   47.846
 5050.00    0.62214   1.21488   -1.000
 5051.00    0.10375   1.21119   -1.000
 5052.00    0.02232   1.22310   -1.000
 5053.00    0.98430   1.24677   -1.000
 5054.00    1.33688   1.27375   -1.000
 5055.00    1.30945   1.29461   49.266
 5056.00    1.31016   1.30562   48.370
 5057.00    1.31106   1.30992   47.911
 5058.00    1.31249   1.31275   47.757
 5059.00    1.30548   1.31760   47.846
 5060.00    1.30635   1.32403   47.935
 5061.00    1.30715   1.32645   47.916
 5062.00    1.30050   1.31704   47.588
 5063.00    1.27496   1.29300   47.615
 5064.00    1.23951   1.26224   48.259
 5065.00    1.23044   1.23883   49.672
 5066.00    1.25014   1.23054   51.449
 5067.00    1.25704   1.23349   52.044
 5068.00    1.25310   1.24052   51.410
 5069.00    1.26181   1.24794   50.628
 5070.00    1.26915   1.25295   50.467
 5071.00    1.26399   1.25288   50.228
 5072.00    1.25926   1.24898   49.896
 5073.00    1.25779   1.24633   50.300
 5074.00    1.26703   1.24799   50.700
 5075.00    1.27956   1.25156   50.075
 5076.00    1.27814   1.25086   49.683
 5077.00    1.27248   1.23904   49.616
 5078.00    1.23097   1.21359   49.577
 5079.00    1.18348   1.18303   50.059
 5080.00    1.16929   1.16417   51.809
 5081.00    1.18716   1.16629   54.286
 5082.00    1.21428   1.18290   54.923
 5083.00    1.23073   1.20337   53.769
 5084.00    1.25234   1.22353   52.618
 5085.00    1.27171   1.24192   51.909
 5086.00    1.28519   1.25587   50.929
 5087.00    1.28253   1.26438   50.055
 5088.00    1.27919   1.26983   49.695
 5089.00    1.28844   1.27551   49.626
 5090.00    1.29352   1.28298   49.377
 5091.00    1.30053   1.29207   49.020
 5092.00    1.30887   1.30141   48.749
 5093.00    1.30575   1.30747   48.496
 5094.00    1.31318   1.30477   47.937
 5095.00    1.29935   1.28909   47.505
 5096.00    1.26698   1.26165   47.934
 5097.00    1.25099   1.23026   48.936
 5098.00    1.22020   1.20666   49.994
 5099.00    1.21142   1.20146   51.207
 5100.00    1.24437   1.21664   52.283
 5101.00    1.27583   1.24172   52.457
 5102.00    1.29765   1.26105   51.178
 5103.00    1.29423   1.26651   49.693
 5104.00    1.27479   1.26041   49.247
 5105.00    1.25817   1.24816   49.532
 5106.00    1.24657   1.23312   50.185
 5107.00    1.22666   1.21835   50.821
 5108.00    1.23003   1.20807   51.443
 5109.00    1.23531   1.20613   52.089
 5110.00    1.24104   1.21454   52.018
 5111.00    1.25650   1.23195   51.686
 5112.00    1.27349   1.25274   51.315
 5113.00    1.28557   1.27045   50.579
 5114.00    1.29091   1.28288   49.958
 5115.00    1.29175   1.29245   49.349
 5116.00    1.30120   1.30141   48.902
 5117.00    1.32249   1.30856   48.639
 5118.00    1.32377   1.30994   48.127
 5119.00    1.31305   1.30224   47.723
 5120.00    1.29139   1.28532   47.857
 5121.00    1.27174   1.26177   48.480
 5122.00    1.24589   1.23535   49.210
 5123.00    1.22036   1.21154   50.023
 5124.00    1.20959   1.19641   51.307
 5125.00    1.21559   1.19205   52.855
 5126.00    1.22316   1.19430   53.243
 5127.00    1.22572   1.19751   52.780
 5128.00    1.22969   1.20016   52.517
 5129.00    1.23818   1.20472   52.204
 5130.00    1.23866   1.21354   52.274
 5131.00    1.24633   1.22612   52.229
 5132.00    1.25119   1.23972   51.558
 5133.00    1.25807   1.25171   50.678
 5134.00    1.27413   1.26001   50.259
 5135.00    1.27921   1.26135   49.782
 5136.00    1.25841   1.25212   49.342
 5137.00    1.24105   1.23334   49.210
 5138.00    1.21684   1.21349   50.080
 5139.00    1.20635   1.20199   51.298
 5140.00    1.22003   1.19977   52.127
 5141.00    1.22281   1.20040   52.212
 5142.00    1.21257   1.20027   51.751
 5143.00    1.21204   1.20231   52.119
 5144.00    1.23126   1.20796   52.964
 5145.00    1.24112   1.21171   52.680
 5146.00    1.23212   1.20968   51.799
 5147.00    1.23289   1.20636   51.604
 5148.00    1.24087   1.20712   52.077
 5149.00    1.24325   1.20980   52.214
 5150.00    1.23363   1.20834   51.587
 5151.00    1.22434   1.20161   51.288
 5152.00    1.22049   1.19533   51.905
 5153.00    1.22463   1.19590   52.852
 5154.00    1.23543   1.20601   53.214
 5155.00    1.25147   1.22471   52.957
 5156.00    1.27852   1.24762   51.959
 5157.00    1.29447   1.26808   50.643
 5158.00    1.29973   1.28107   49.354
 5159.00    1.30460   1.28527   48.423
 5160.00    1.30083   1.28155   48.053
 5161.00    1.29389   1.27123   48.038
 5162.00    1.27922   1.25487   48.196
 5163.00    1.26726   1.22944   48.471
 5164.00    1.24119   1.18790   -1.000
 5165.00    1.16669   1.12605   49.769
 5166.00    1.07706   1.05439   51.641
 5167.00    1.01771   1.00019   55.856
 5168.00    1.01414   0.98630   61.682
 5169.00    1.08338   1.00484   -1.000
 5170.00    1.10361   1.02080   -1.000
 5171.00    1.04361   1.01042   61.050
 5172.00    0.98362   0.99108   60.149
 5173.00    1.01416   1.00149   63.898
 5174.00    1.12085   1.05592   -1.000
 5175.00    1.21595   1.13074   -1.000
 5176.00    1.25896   1.19262   -1.000
 5177.00    1.28318   1.22714   -1.000
 5178.00    1.29137   1.23848   -1.000
 5179.00    1.27886   1.23057   51.041
 5180.00    1.25092   1.19844   -1.000
 5181.00    1.18213   1.13762   51.414
 5182.00    1.05695   1.06088   53.178
 5183.00    0.97834   1.00230   56.971
 5184.00    1.00403   0.99690   63.540
 5185.00    1.10260   1.04891   -1.000
 5186.00    1.20510   1.12492   -1.000
 5187.00    1.24363   1.18571   -1.000
 5188.00    1.25062   1.21690   53.331
 5189.00    1.25596   1.22357   51.561
 5190.00    1.25285   1.21214   51.078
 5191.00    1.21910   1.18884   50.862
 5192.00    1.19112   1.16663   51.386
 5193.00    1.20273   1.15902   52.990
 5194.00    1.22212   1.16683   -1.000
 5195.00    1.23046   1.18116   -1.000
 5196.00    1.23930   1.19706   53.196
 5197.00    1.25798   1.21522   52.404
 5198.00    1.26823   1.23476   51.640
 5199.00    1.27918   1.25132   50.608
 5200.00    1.29528   1.25989   49.743
 5201.00    1.28723   1.25701   49.320
 5202.00    1.26789   1.24126   49.261
 5203.00    1.24547   1.21402   49.645
 5204.00    1.21467   1.18077   50.531
 5205.00    1.19844   1.15026   51.681
 5206.00    1.19699   1.12980   -1.000
 5207.00    1.19528   1.12122   -1.000
 5208.00    1.20199   1.12346   -1.000
 5209.00    1.20980   1.13812   -1.000
 5210.00    1.23086   1.16725   -1.000
 5211.00    1.27975   1.20555   -1.000
 5212.00    1.30802   1.23993   -1.000
 5213.00    1.31432   1.25755   -1.000
 5214.00    1.30290   1.25449   49.140
 5215.00    1.27090   1.23918   48.088
 5216.00    1.25760   1.22726   48.565
 5217.00    1.26414   1.23013   49.699
 5218.00    1.28774   1.24732   50.331
 5219.00    1.30761   1.26936   49.952
 5220.00    1.32130   1.28600   48.891
 5221.00    1.32717   1.29047   48.135
 5222.00    1.32478   1.27930   47.753
 5223.00    1.29998   1.25146   47.555
 5224.00    1.26063   1.20941   -1.000
 5225.00    1.20608   1.16334   49.580
 5226.00    1.16052   1.13154   51.613
 5227.00    1.16991   1.13055   54.025
 5228.00    1.21891   1.16133   -1.000
 5229.00    1.27038   1.20641   -1.000
 5230.00    1.30209   1.24099   -1.000
 5231.00    1.30675   1.25009   -1.000
 5232.00    1.27938   1.23740   48.454
 5233.00    1.25494   1.22069   48.349
 5234.00    1.25849   1.21783   49.287
 5235.00    1.28365   1.23410   50.177
 5236.00    1.30542   1.26094   50.111
 5237.00    1.31683   1.28535   49.001
 5238.00    1.32206   1.29965   47.827
 5239.00    1.32714   1.30451   47.263
 5240.00    1.33367   1.30452   47.200
 5241.00    1.33586   1.30330   47.344
 5242.00    1.32617   1.30302   47.271
 5243.00    1.32732   1.30412   46.999
 5244.00    1.33983   1.30293   47.054
 5245.00    1.33179   1.29305   46.967
 5246.00    1.30465   1.27307   46.890
 5247.00    1.27667   1.25057   47.785
 5248.00    1.26588   1.23411   49.267
 5249.00    1.26615   1.22530   50.436
 5250.00    1.26381   1.22269   50.613
 5251.00    1.26554   1.22630   50.704
 5252.00    1.27548   1.23384   51.020
 5253.00    1.28632   1.24011   50.806
 5254.00    1.28376   1.24441   50.119
 5255.00    1.29458   1.25363   49.611
 5256.00    1.31241   1.27368   49.596
 5257.00    1.33844   1.29925   49.259
 5258.00    1.35324   1.31630   48.144
 5259.00    1.33309   1.31357   46.846
 5260.00    1.31185   1.28875   46.389
 5261.00    1.26537   1.24695   46.784
 5262.00    1.21970   1.19765   48.030
 5263.00    1.18060   1.15150   50.035
 5264.00    1.16008   1.11827   52.412
 5265.00    1.15856   1.10385   -1.000
 5266.00    1.17925   1.10496   -1.000
 5267.00    1.19727   1.10753   -1.000
 5268.00    1.18153   1.09891   -1.000
 5269.00    1.13617   1.08539   -1.000
 5270.00    1.14809   1.08854   -1.000
 5271.00    1.19781   1.11936   -1.000
 5272.00    1.24143   1.16344   -1.000
 5273.00    1.26403   1.19651   -1.000
 5274.00    1.26038   1.21110   50.606
 5275.00    1.25859   1.22092   50.001
 5276.00    1.28270   1.24099   50.005
 5277.00    1.31677   1.27038   49.899
 5278.00    1.34378   1.29411   48.986
 5279.00    1.33692   1.29851   47.343
 5280.00    1.30472   1.28315   46.416
 5281.00    1.29002   1.25853   46.634
 5282.00    1.27068   1.23756   47.716
 5283.00    1.25750   1.23115   48.960
 5284.00    1.27913   1.24518   49.879
 5285.00    1.31541   1.27568   50.163
 5286.00    1.35066   1.30880   49.218
 5287.00    1.36216   1.33172   47.734
 5288.00    1.36045   1.34283   46.230
 5289.00    1.36364   1.34783   45.813
 5290.00    1.36058   1.34996   46.027
 5291.00    1.35667   1.34831   46.039
 5292.00    1.35032   1.34210   45.783
 5293.00    1.35389   1.33179   45.674
 5294.00    1.34238   1.31552   45.920
 5295.00    1.31481   1.28954   46.348
 5296.00    1.28185   1.25596   46.954
 5297.00    1.24954   1.22702   48.188
 5298.00    1.24430   1.21651   50.014
 5299.00    1.27174   1.22635   51.399
 5300.00    1.29964   1.24546   -1.000
 5301.00    1.30339   1.26398   49.936
 5302.00    1.30368   1.28249   48.980
 5303.00    1.32944   1.30440   48.630
 5304.00    1.35038   1.32615   48.054
 5305.00    1.36040   1.33935   46.800
 5306.00    1.34967   1.34095   45.909
 5307.00    1.33971   1.33756   45.744
 5308.00    1.34463   1.33800   46.158
 5309.00    1.35029   1.34423   46.566
 5310.00    1.36926   1.35085   46.309
 5311.00    1.36887   1.35208   45.830
 5312.00    1.36254   1.34704   45.524
 5313.00    1.35690   1.33793   45.547
 5314.00    1.34627   1.32632   45.791
 5315.00    1.33365   1.31356   45.995
 5316.00    1.32138   1.30317   46.319
 5317.00    1.31267   1.29963   46.771
 5318.00    1.33356   1.30331   47.191
 5319.00    1.34515   1.30887   47.234
 5320.00    1.33298   1.30999   46.906
 5321.00    1.32724   1.30338   46.694
 5322.00    1.32076   1.28923   46.840
 5323.00    1.30292   1.27128   47.161
 5324.00    1.29100   1.25353   47.702
 5325.00    1.28316   1.23309   48.521
 5326.00    1.25751   1.20235   -1.000
 5327.00    1.19917   1.16427   49.015
 5328.00    1.16569   1.13964   50.257
 5329.00    1.20269   1.14994   -1.000
 5330.00    1.26623   1.19211   -1.000
 5331.00    1.30656   1.24004   -1.000
 5332.00    1.31338   1.27313   50.225
 5333.00    1.32106   1.29142   48.501
 5334.00    1.33179   1.30337   47.920
 5335.00    1.33753   1.31188   47.464
 5336.00    1.33730   1.31391   46.919
 5337.00    1.33176   1.30627   46.690
 5338.00    1.31464   1.28878   46.954
 5339.00    1.28695   1.26590   47.261
 5340.00    1.26224   1.24817   47.763
 5341.00    1.26855   1.24681   48.921
 5342.00    1.30073   1.26185   49.816
 5343.00    1.32348   1.28050   49.503
 5344.00    1.33018   1.29046   48.225
 5345.00    1.32439   1.28965   47.320
 5346.00    1.31620   1.28272   47.252
 5347.00    1.31205   1.27425   47.543
 5348.00    1.30155   1.26792   47.851
 5349.00    1.30437   1.26875   48.091
 5350.00    1.31311   1.28006   48.510
 5351.00    1.33564   1.29829   48.654
 5352.00    1.34733   1.31638   47.968
 5353.00    1.34496   1.33121   46.875
 5354.00    1.35272   1.34427   46.248
 5355.00    1.37247   1.35661   46.069
 5356.00    1.37015   1.36602   45.726
 5357.00    1.37158   1.36988   45.157
 5358.00    1.38035   1.36784   44.797
 5359.00    1.37879   1.36047   44.808
 5360.00    1.36523   1.34817   44.877
 5361.00    1.34886   1.33269   45.033
 5362.00    1.33648   1.31705   45.532
 5363.00    1.31735   1.30373   46.281
 5364.00    1.30596   1.29373   46.971
 5365.00    1.30268   1.28723   47.330
 5366.00    1.30129   1.28317   47.607
 5367.00    1.30573   1.27737   47.893
 5368.00    1.29578   1.26325   47.782
 5369.00    1.27125   1.23925   47.764
 5370.00    1.24737   1.21548   48.210
 5371.00    1.24479   1.20905   49.356
 5372.00    1.27815   1.22947   50.841
 5373.00    1.32224   1.26851   -1.000
 5374.00    1.35352   1.30721   49.410
 5375.00    1.37146   1.33146   47.153
 5376.00    1.37433   1.33962   45.908
 5377.00    1.36426   1.33838   45.507
 5378.00    1.35797   1.33406   45.607
 5379.00    1.34837   1.32825   45.639
 5380.00    1.34049   1.32012   45.721
 5381.00    1.33024   1.31049   45.972
 5382.00    1.31831   1.30310   46.413
 5383.00    1.31808   1.30191   46.872
 5384.00    1.33607   1.30731   47.122
 5385.00    1.35280   1.31514   47.112
 5386.00    1.35657   1.31957   46.904
 5387.00    1.35291   1.31694   46.423
 5388.00    1.33493   1.30714   46.292
 5389.00    1.32095   1.29296   46.478
 5390.00    1.32092   1.27872   46.910
 5391.00    1.31048   1.26785   47.608
 5392.00    1.30498   1.26106   48.162
 5393.00    1.29898   1.25639   48.405
 5394.00    1.29942   1.24977   48.443
 5395.00    1.28620   1.23792   48.579
 5396.00    1.26307   1.22414   48.922
 5397.00    1.25463   1.21868   49.545
 5398.00    1.28056   1.22853   -1.000
 5399.00    1.30648   1.24912   -1.000
 5400.00    1.31837   1.26902   49.276
 5401.00    1.31957   1.27827   47.841
 5402.00    1.30983   1.27108   47.454
 5403.00    1.28232   1.24712   47.518
 5404.00    1.24814   1.21508   47.871
 5405.00    1.23640   1.19144   49.229
 5406.00    1.24663   1.18837   -1.000
 5407.00    1.27702   1.20177   -1.000
 5408.00    1.29423   1.21697   -1.000
 5409.00    1.27640   1.22630   -1.000
 5410.00    1.27321   1.23561   49.702
 5411.00    1.30338   1.25287   -1.000
 5412.00    1.33086   1.27492   -1.000
 5413.00    1.33896   1.29182   48.665
 5414.00    1.32575   1.30066   47.508
 5415.00    1.32152   1.30720   46.956
 5416.00    1.33593   1.31555   46.940
 5417.00    1.33762   1.32223   46.967
 5418.00    1.33628   1.32190   46.650
 5419.00    1.33040   1.31532   46.345
 5420.00    1.32935   1.30789   46.489
 5421.00    1.33194   1.30256   46.930
 5422.00    1.32972   1.29742   47.232
 5423.00    1.31520   1.29143   47.086
 5424.00    1.29984   1.28989   46.893
 5425.00    1.31755   1.29794   47.466
 5426.00    1.34150   1.30908   47.933
 5427.00    1.33692   1.30840   47.514
 5428.00    1.30623   1.28968   46.727
 5429.00    1.26883   1.26484   46.778
 5430.00    1.27314   1.25092   47.966
 5431.00    1.29800   1.25050   49.500
 5432.00    1.30035   1.25189   49.745
 5433.00    1.28231   1.24617   48.932
 5434.00    1.27413   1.23801   48.812
 5435.00    1.28001   1.23966   49.448
 5436.00    1.29937   1.25783   50.041
 5437.00    1.32361   1.28821   49.933
 5438.00    1.35118   1.31988   49.013
 5439.00    1.36513   1.34359   47.689
 5440.00    1.36652   1.35645   46.656
 5441.00    1.36630   1.36013   45.973
 5442.00    1.36121   1.35572   45.568
 5443.00    1.34764   1.34054   45.461
 5444.00    1.31562   1.31216   45.454
 5445.00    1.28164   1.27609   45.884
 5446.00    1.25748   1.24754   47.037
 5447.00    1.26765   1.24158   48.918
 5448.00    1.31196   1.26008   -1.000
 5449.00    1.34669   1.29007   -1.000
 5450.00    1.35393   1.31413   48.915
 5451.00    1.35831   1.32182   47.513
 5452.00    1.35715   1.31202   46.969
 5453.00    1.33170   1.28875   46.937
 5454.00    1.29300   1.26083   47.301
 5455.00    1.26774   1.24300   48.332
 5456.00    1.28211   1.24801   49.707
 5457.00    1.32893   1.27400   -1.000
 5458.00    1.35960   1.30389   -1.000
 5459.00    1.36353   1.31948   48.629
 5460.00    1.35705   1.31514   47.254
 5461.00    1.33366   1.29775   46.878
 5462.00    1.31210   1.27974   47.350
 5463.00    1.31040   1.27190   48.217
 5464.00    1.32100   1.27718   48.902
 5465.00    1.32454   1.28969   49.212
 5466.00    1.33714   1.30147   48.692
 5467.00    1.34830   1.30883   48.110
 5468.00    1.34937   1.31133   47.847
 5469.00    1.34370   1.30912   47.351
 5470.00    1.34826   1.30312   47.112
 5471.00    1.34264   1.29514   47.487
 5472.00    1.32823   1.28601   47.986
 5473.00    1.31997   1.27447   48.195
 5474.00    1.30529   1.25835   48.429
 5475.00    1.28087   1.23852   48.898
 5476.00    1.25468   1.22283   49.575
 5477.00    1.26662   1.22251   50.598
 5478.00    1.29489   1.23872   -1.000
 5479.00    1.31487   1.25741   -1.000
 5480.00    1.31472   1.26466   -1.000
 5481.00    1.30361   1.26230   48.622
 5482.00    1.30515   1.26338   48.848
 5483.00    1.32291   1.27596   49.446
 5484.00    1.34533   1.29425   -1.000
 5485.00    1.35049   1.30570   48.652
 5486.00    1.34031   1.30400   47.661
 5487.00    1.32365   1.29417   47.179
 5488.00    1.31677   1.28640   47.541
 5489.00    1.32081   1.28646   48.211
 5490.00    1.32304   1.29256   48.545
 5491.00    1.32953   1.29917   48.581
 5492.00    1.32913   1.30236   48.276
 5493.00    1.33166   1.30219   47.921
 5494.00    1.33799   1.30079   47.723
 5495.00    1.33974   1.29879   47.798
 5496.00    1.33184   1.29582   47.830
 5497.00    1.32100   1.29428   47.825
 5498.00    1.32362   1.29681   48.131
 5499.00    1.33482   1.29977   48.478
 5500.00    1.33477   1.29621   48.290
 5501.00    1.32213   1.28594   47.768
 5502.00    1.31607   1.27612   48.031
 5503.00    1.32651   1.27178   -1.000
 5504.00    1.33307   1.26987   -1.000
 5505.00    1.31964   1.26563   -1.000
 5506.00    1.30418   1.26113   48.450
 5507.00    1.30680   1.26240   49.018
 5508.00    1.32707   1.27015   -1.000
 5509.00    1.33117   1.27706   -1.000
 5510.00    1.32111   1.27487   48.434
 5511.00    1.30806   1.26288   48.149
 5512.00    1.28942   1.24855   48.410
 5513.00    1.29064   1.24133   -1.000
 5514.00    1.30369   1.24562   -1.000
 5515.00    1.31624   1.25903   -1.000
 5516.00    1.33342   1.27656   -1.000
 5517.00    1.34925   1.29441   -1.000
 5518.00    1.36029   1.30990   -1.000
 5519.00    1.36564   1.32034   47.642
 5520.00    1.36243   1.32425   46.835
 5521.00    1.35971   1.32328   46.633
 5522.00    1.36040   1.32060   46.691
 5523.00    1.35242   1.31688   46.783
 5524.00    1.34057   1.30909   46.937
 5525.00    1.32453   1.29374   47.030
 5526.00    1.29810   1.27193   47.284
 5527.00    1.27376   1.25169   47.883
 5528.00    1.26270   1.24401   48.934
 5529.00    1.28130   1.25365   50.191
 5530.00    1.31599   1.27368   50.617
 5531.00    1.34043   1.29109   -1.000
 5532.00    1.34262   1.29750   48.383
 5533.00    1.33343   1.29398   47.663
 5534.00    1.32337   1.28732   47.673
 5535.00    1.32074   1.28364   48.085
 5536.00    1.32951   1.28514   48.356
 5537.00    1.34043   1.29081   48.242
 5538.00    1.35008   1.29917   -1.000
 5539.00    1.35428   1.30903   47.711
 5540.00    1.35542   1.31747   47.520
 5541.00    1.35584   1.32016   47.089
 5542.00    1.34511   1.31564   46.699
 5543.00    1.33400   1.30769   46.667
 5544.00    1.33002   1.30192   47.092
 5545.00    1.33721   1.30127   47.579
 5546.00    1.34714   1.30582   47.752
 5547.00    1.35187   1.31486   47.649
 5548.00    1.35934   1.32640   47.534
 5549.00    1.36223   1.33630   47.262
 5550.00    1.36704   1.34073   46.813
 5551.00    1.36294   1.33845   46.407
 5552.00    1.35529   1.33082   46.261
 5553.00    1.34502   1.32142   46.462
 5554.00    1.33832   1.31480   46.852
 5555.00    1.34105   1.31320   47.376
 5556.00    1.35608   1.31494   47.653
 5557.00    1.35371   1.31696   47.619
 5558.00    1.34590   1.31794   47.475
 5559.00    1.34953   1.31804   47.383
 5560.00    1.35233   1.31647   47.322
 5561.00    1.34404   1.31164   47.270
 5562.00    1.33516   1.30394   47.349
 5563.00    1.32696   1.29613   47.575
 5564.00    1.32022   1.29065   48.028
 5565.00    1.32014   1.28764   48.391
 5566.00    1.32192   1.28585   48.555
 5567.00    1.32422   1.28471   48.657
 5568.00    1.32354   1.28462   48.714
 5569.00    1.32177   1.28562   48.634
 5570.00    1.32129   1.28648   48.528
 5571.00    1.31392   1.28590   48.633
 5572.00    1.29965   1.28500   48.629
 5573.00    1.30663   1.28685   48.624
 5574.00    1.32380   1.29285   48.748
 5575.00    1.33394   1.30082   48.595
 5576.00    1.34663   1.30752   48.114
 5577.00    1.35040   1.31214   47.687
 5578.00    1.32367   1.31581   47.036
 5579.00    1.25446   1.31871   46.261
 5580.00    1.21747   1.31964   -1.000
 5581.00    1.29278   1.31776   48.340
 5582.00    1.36667   1.31337   -1.000
 5583.00    1.36110   1.30641   -1.000
 5584.00    1.33335   1.29423   48.082
 5585.00    1.31089   1.27372   47.913
 5586.00    1.27925   1.24707   48.139
 5587.00    1.25090   1.22317   49.096
 5588.00    1.24646   1.21181   50.336
 5589.00    1.25873   1.21637   51.492
 5590.00    1.28094   1.23159   -1.000
 5591.00    1.30191   1.24781   -1.000
 5592.00    1.30798   1.25844   -1.000
 5593.00    1.30060   1.26470   49.882
 5594.00    1.29814   1.27253   49.648
 5595.00    1.31286   1.28398   49.804
 5596.00    1.32236   1.29284   49.592
 5597.00    1.31305   1.29155   48.929
 5598.00    1.29423   1.28033   48.467
 5599.00    1.29243   1.26542   48.793
 5600.00    1.29511   1.25189   49.605
 5601.00    1.28010   1.24318   50.196
 5602.00    1.27745   1.24433   50.247
 5603.00    1.29519   1.25986   50.470
 5604.00    1.32817   1.28758   50.730
 5605.00    1.35238   1.31732   50.070
 5606.00    1.36548   1.33877   48.759
 5607.00    1.36849   1.34888   47.597
 5608.00    1.36624   1.35125   46.951
 5609.00    1.36425   1.35123   46.784
 5610.00    1.36933   1.35165   46.836
 5611.00    1.36934   1.35012   46.932
 5612.00    1.35950   1.33980   46.909
 5613.00    1.33520   1.31563   46.774
 5614.00    1.30071   1.28266   46.933
 5615.00    1.27768   1.25670   47.788
 5616.00    1.29045   1.25138   49.361
 5617.00    1.32034   1.26498   -1.000
 5618.00    1.33716   1.28428   -1.000
 5619.00    1.34002   1.29900   49.341
 5620.00    1.33720   1.30779   48.563
 5621.00    1.34631   1.31129   48.368
 5622.00    1.34188   1.30675   48.178
 5623.00    1.31640   1.29345   47.937
 5624.00    1.30129   1.27853   48.068
 5625.00    1.31120   1.27276   48.906
 5626.00    1.33181   1.28070   -1.000
 5627.00    1.34566   1.29722   -1.000
 5628.00    1.35546   1.31449   49.054
 5629.00    1.36531   1.32839   48.312
 5630.00    1.36612   1.33739   47.733
 5631.00    1.36369   1.34026   47.350
 5632.00    1.36417   1.33686   47.185
 5633.00    1.35629   1.32875   47.008
 5634.00    1.34576   1.31809   47.015
 5635.00    1.34099   1.30674   47.336
 5636.00    1.33173   1.29671   47.689
 5637.00    1.32816   1.29045   47.995
 5638.00    1.33761   1.28876   -1.000
 5639.00    1.33706   1.28906   48.674
 5640.00    1.33238   1.28825   48.734
 5641.00    1.33099   1.28671   48.684
 5642.00    1.32765   1.28742   48.812
 5643.00    1.33538   1.29178   48.868
 5644.00    1.34296   1.29799   48.707
 5645.00    1.34406   1.30352   48.480
 5646.00    1.34819   1.30702   48.377
 5647.00    1.34876   1.30773   48.087
 5648.00    1.35010   1.30576   47.910
 5649.00    1.34552   1.30340   47.789
 5650.00    1.34386   1.30373   47.709
 5651.00    1.34747   1.30701   47.794
 5652.00    1.35038   1.30969   47.818
 5653.00    1.33433   1.30779   47.499
 5654.00    1.33494   1.30038   47.318
 5655.00    1.32835   1.28796   47.453
 5656.00    1.31297   1.27042   47.808
 5657.00    1.27927   1.25043   48.259
 5658.00    1.25464   1.23594   49.107
 5659.00    1.27015   1.23443   50.535
 5660.00    1.29762   1.24429   -1.000
 5661.00    1.30902   1.25648   -1.000
 5662.00    1.30545   1.26619   49.936
 5663.00    1.31167   1.27633   49.575
 5664.00    1.32985   1.28790   49.632
 5665.00    1.33415   1.29557   49.196
 5666.00    1.32884   1.29515   48.505
 5667.00    1.32638   1.28942   48.219
 5668.00    1.32342   1.28511   48.408
 5669.00    1.32836   1.28663   48.704
 5670.00    1.33730   1.29406   48.806
 5671.00    1.34433   1.30531   48.709
 5672.00    1.35596   1.31745   48.423
 5673.00    1.36142   1.32701   48.016
 5674.00    1.35100   1.33198   47.542
 5675.00    1.34534   1.33324   47.079
 5676.00    1.35324   1.33261   47.006
 5677.00    1.35790   1.33039   47.150
 5678.00    1.35560   1.32568   47.060
 5679.00    1.35051   1.31817   46.963
 5680.00    1.34360   1.30840   47.148
 5681.00    1.33115   1.29701   47.357
 5682.00    1.31326   1.28587   47.619
 5683.00    1.30527   1.27874   48.129
 5684.00    1.30804   1.27749   48.709
 5685.00    1.31435   1.27893   48.905
 5686.00    1.31250   1.27890   48.680
 5687.00    1.30099   1.27783   48.441
 5688.00    1.30533   1.27989   48.589
 5689.00    1.31542   1.28776   49.114
 5690.00    1.32577   1.29952   49.364
 5691.00    1.34072   1.31076   48.931
 5692.00    1.34970   1.31822   48.071
 5693.00    1.34841   1.32117   47.528
 5694.00    1.34138   1.32074   47.210
 5695.00    1.34427   1.31825   47.087
 5696.00    1.35220   1.31378   47.124
 5697.00    1.34200   1.30669   47.168
 5698.00    1.33241   1.29745   47.283
 5699.00    1.32279   1.28780   47.691
 5700.00    1.31880   1.27947   48.240
 5701.00    1.31294   1.27434   48.693
 5702.00    1.30780   1.27440   49.195
 5703.00    1.31742   1.27838   49.482
 5704.00    1.32584   1.28064   49.217
 5705.00    1.31629   1.27584   48.713
 5706.00    1.29788   1.26354   48.516
 5707.00    1.27248   1.24787   48.769
 5708.00    1.25884   1.23405   49.403
 5709.00    1.24427   1.22579   50.295
 5710.00    1.24381   1.22545   51.116
 5711.00    1.26393   1.23431   51.504
 5712.00    1.28864   1.25200   51.449
 5713.00    1.30977   1.27467   50.988
 5714.00    1.32525   1.29544   50.025
 5715.00    1.33301   1.30953   48.810
 5716.00    1.33739   1.31772   47.969
 5717.00    1.33937   1.32320   47.702
 5718.00    1.34262   1.32828   47.600
 5719.00    1.34661   1.33395   47.460
 5720.00    1.35174   1.34012   47.241
 5721.00    1.35607   1.34596   46.947
 5722.00    1.35992   1.35046   46.709
 5723.00    1.35612   1.35224   46.579
 5724.00    1.35184   1.34951   46.503
 5725.00    1.34648   1.34178   46.444
 5726.00    1.33947   1.33204   46.523
 5727.00    1.34069   1.32559   46.865
 5728.00    1.34527   1.32486   47.351
 5729.00    1.34862   1.32666   47.755
 5730.00    1.34439   1.32686   47.620
 5731.00    1.34033   1.32623   47.321
 5732.00    1.34476   1.32887   47.369
 5733.00    1.34969   1.33597   47.602
 5734.00    1.35443   1.34345   47.510
 5735.00    1.35297   1.34642   47.089
 5736.00    1.34961   1.34427   46.751
 5737.00    1.35230   1.34018   46.731
 5738.00    1.35735   1.33713   46.793
 5739.00    1.35201   1.33566   46.917
 5740.00    1.34194   1.33466   46.977
 5741.00    1.34382   1.33356   47.062
 5742.00    1.34254   1.33360   47.141
 5743.00    1.34469   1.33631   47.239
 5744.00    1.34845   1.34069   47.173
 5745.00    1.35415   1.34273   47.108
 5746.00    1.34750   1.33951   46.824
 5747.00    1.33485   1.33352   46.543
 5748.00    1.33149   1.33065   46.697
 5749.00    1.33408   1.33247   47.136
 5750.00    1.33444   1.33295   47.382
 5751.00    1.32777   1.32503   47.187
 5752.00    1.31044   1.30952   47.001
 5753.00    1.30395   1.29635   47.270
 5754.00    1.30417   1.29577   47.821
 5755.00    1.32450   1.30907   48.327
 5756.00    1.34103   1.32789   48.417
 5757.00    1.34497   1.34144   47.910
 5758.00    1.35084   1.34358   47.059
 5759.00    1.34653   1.33484   46.429
 5760.00    1.33591   1.32042   46.435
 5761.00    1.32341   1.30741   46.897
 5762.00    1.31313   1.30265   47.505
 5763.00    1.31904   1.30990   48.151
 5764.00    1.33795   1.32655   48.483
 5765.00    1.35147   1.34415   48.109
 5766.00    1.35495   1.35538   47.298
 5767.00    1.35572   1.35918   46.654
 5768.00    1.35550   1.35819   46.426
 5769.00    1.35520   1.35468   46.370
 5770.00    1.34725   1.34981   46.300
 5771.00    1.34505   1.34432   46.355
 5772.00    1.34675   1.33885   46.502
 5773.00    1.33531   1.33435   46.740
 5774.00    1.32346   1.33196   47.027
 5775.00    1.33043   1.33223   47.184
 5776.00    1.34221   1.33359   47.249
 5777.00    1.34333   1.33185   47.184
 5778.00    1.33472   1.32257   46.972
 5779.00    1.31556   1.30498   46.880
 5780.00    1.28639   1.28381   46.992
 5781.00    1.26319   1.26653   47.561
 5782.00    1.26277   1.25783   48.571
 5783.00    1.27165   1.25679   49.322
 5784.00    1.28122   1.26022   49.384
 5785.00    1.29750   1.26804   49.193
 5786.00    1.31460   1.28162   49.013
 5787.00    1.32606   1.29782   48.835
 5788.00    1.32856   1.31011   48.373
 5789.00    1.32745   1.31508   47.740
 5790.00    1.32136   1.31520   47.311
 5791.00    1.31952   1.31612   47.275
 5792.00    1.32251   1.32186   47.465
 5793.00    1.32697   1.33148   47.464
 5794.00    1.33546   1.34008   47.136
 5795.00    1.34194   1.34290   46.789
 5796.00    1.33891   1.33945   46.501
 5797.00    1.32888   1.33489   46.411
 5798.00    1.32756   1.33600   46.624
 5799.00    1.33583   1.34449   46.928
 5800.00    1.34551   1.35542   46.829
 5801.00    1.35384   1.36166   46.301
 5802.00    1.34806   1.35929   45.665
 5803.00    1.33925   1.34989   45.433
 5804.00    1.33297   1.33922   45.714
 5805.00    1.32895   1.33305   46.092
 5806.00    1.33632   1.33322   46.462
 5807.00    1.34008   1.33773   46.712
 5808.00    1.34022   1.34361   46.675
 5809.00    1.34304   1.34912   46.506
 5810.00    1.34445   1.35347   46.357
 5811.00    1.35219   1.35558   46.323
 5812.00    1.35253   1.35402   46.293
 5813.00    1.35356   1.34819   46.148
 5814.00    1.35164   1.33967   45.999
 5815.00    1.34675   1.33264   46.036
 5816.00    1.34494   1.33206   46.356
 5817.00    1.34940   1.33957   46.622
 5818.00    1.35518   1.35129   46.488
 5819.00    1.35759   1.36123   46.173
 5820.00    1.35753   1.36597   45.904
 5821.00    1.36441   1.36583   45.674
 5822.00    1.36998   1.36328   45.504
 5823.00    1.36716   1.36088   45.524
 5824.00    1.36091   1.35992   45.671
 5825.00    1.36026   1.36032   45.652
 5826.00    1.36017   1.36153   45.573
 5827.00    1.36404   1.36330   45.494
 5828.00    1.36450   1.36546   45.439
 5829.00    1.35845   1.36720   45.439
 5830.00    1.35574   1.36742   45.513
 5831.00    1.35602   1.36574   45.471
 5832.00    1.35513   1.36243   45.450
 5833.00    1.35557   1.35811   45.411
 5834.00    1.35329   1.35422   45.460
 5835.00    1.35126   1.35248   45.718
 5836.00    1.35699   1.35292   45.858
 5837.00    1.35795   1.35426   45.753
 5838.00    1.35897   1.35646   45.641
 5839.00    1.36331   1.36054   45.732
 5840.00    1.36638   1.36590   45.856
 5841.00    1.36547   1.37008   45.771
 5842.00    1.36029   1.37089   45.472
 5843.00    1.35890   1.36768   45.204
 5844.00    1.36093   1.36094   45.155
 5845.00    1.35256   1.35206   45.279
 5846.00    1.34540   1.34339   45.452
 5847.00    1.34378   1.33760   45.725
 5848.00    1.33990   1.33569   45.978
 5849.00    1.34329   1.33532   46.202
 5850.00    1.34596   1.33215   46.223
 5851.00    1.34322   1.32399   46.255
 5852.00    1.33173   1.31344   46.477
 5853.00    1.32347   1.30510   46.768
 5854.00    1.31945   1.30003   47.187
 5855.00    1.31286   1.29441   47.482
 5856.00    1.30410   1.28541   47.592
 5857.00    1.29921   1.27694   47.646
 5858.00    1.30106   1.27618   48.022
 5859.00    1.31546   1.28510   48.497
 5860.00    1.32927   1.29844   48.364
 5861.00    1.33069   1.30972   47.798
 5862.00    1.33265   1.31668   47.342
 5863.00    1.33788   1.32030   47.134
 5864.00    1.34122   1.32115   46.952
 5865.00    1.33117   1.31927   46.849
 5866.00    1.32470   1.31683   46.933
 5867.00    1.33176   1.31796   47.094
 5868.00    1.34360   1.32440   47.309
 5869.00    1.35066   1.33297   47.338
 5870.00    1.35486   1.33890   46.983
 5871.00    1.35296   1.34029   46.560
 5872.00    1.35219   1.33873   46.311
 5873.00    1.35450   1.33676   46.257
 5874.00    1.35332   1.33546   46.353
 5875.00    1.35177   1.33398   46.395
 5876.00    1.35529   1.33063   46.340
 5877.00    1.35431   1.32436   46.419
 5878.00    1.34345   1.31589   46.611
 5879.00    1.33365   1.30755   46.716
 5880.00    1.33316   1.30177   46.997
 5881.00    1.33826   1.29914   47.331
 5882.00    1.33444   1.29797   47.413
 5883.00    1.32351   1.29640   47.303
 5884.00    1.32236   1.29370   47.265
 5885.00    1.32292   1.28642   47.420
 5886.00    1.30969   1.26486   47.515
 5887.00    1.27381   1.22013   -1.000
 5888.00    1.20609   1.15796   -1.000
 5889.00    1.12573   1.10299   49.532
 5890.00    1.06898   1.08183   52.418
 5891.00    1.06180   1.09861   55.844
 5892.00    1.10349   1.13050   57.589
 5893.00    1.15557   1.14846   56.666
 5894.00    1.17452   1.14220   54.478
 5895.00    1.15403   1.12699   53.088
 5896.00    1.13170   1.12770   53.297
 5897.00    1.14263   1.15443   54.640
 5898.00    1.18632   1.19504   54.971
 5899.00    1.23383   1.23226   53.691
 5900.00    1.28209   1.25918   51.810
 5901.00    1.30858   1.27691   50.225
 5902.00    1.31670   1.28761   49.043
 5903.00    1.31992   1.29306   48.113
 5904.00    1.31797   1.29542   47.697
 5905.00    1.31863   1.29704   47.614
 5906.00    1.31965   1.29982   47.599
 5907.00    1.32497   1.30408   47.652
 5908.00    1.33448   1.30843   47.659
 5909.00    1.33467   1.31128   47.582
 5910.00    1.33186   1.31164   47.472
 5911.00    1.32743   1.30819   47.559
 5912.00    1.31486   1.29978   47.668
 5913.00    1.30357   1.28796   47.717
 5914.00    1.29828   1.27756   47.861
 5915.00    1.29692   1.27348   48.419
 5916.00    1.30074   1.27703   48.900
 5917.00    1.31062   1.28563   48.916
 5918.00    1.31822   1.29519   48.663
 5919.00    1.32459   1.30226   48.451
 5920.00    1.32141   1.30551   48.262
 5921.00    1.31629   1.30605   48.121
 5922.00    1.31467   1.30636   47.963
 5923.00    1.32481   1.30822   47.922
 5924.00    1.33079   1.31146   47.969
 5925.00    1.32729   1.31441   47.842
 5926.00    1.32651   1.31495   47.669
 5927.00    1.31885   1.31150   47.568
 5928.00    1.31014   1.30482   47.521
 5929.00    1.30559   1.29889   47.578
 5930.00    1.30867   1.29800   47.859
 5931.00    1.31698   1.30169   48.238
 5932.00    1.32464   1.30471   48.312
 5933.00    1.32271   1.30341   47.936
 5934.00    1.31633   1.30023   47.627
 5935.00    1.31970   1.30037   47.831
 5936.00    1.32423   1.30554   48.196
 5937.00    1.32598   1.31223   48.339
 5938.00    1.32524   1.31531   48.128
 5939.00    1.32677   1.31233   47.732
 5940.00    1.32447   1.30498   47.486
 5941.00    1.31647   1.29792   47.570
 5942.00    1.31362   1.29566   47.989
 5943.00    1.31704   1.29926   48.333
 5944.00    1.32299   1.30555   48.371
 5945.00    1.32838   1.30960   48.146
 5946.00    1.32607   1.30797   47.853
 5947.00    1.31090   1.30143   47.640
 5948.00    1.29811   1.29483   47.687
 5949.00    1.30117   1.29253   48.047
 5950.00    1.30359   1.29380   48.547
 5951.00    1.29946   1.29476   48.774
 5952.00    1.29805   1.29432   48.607
 5953.00    1.29796   1.29443   48.393
 5954.00    1.30302   1.29543   48.436
 5955.00    1.30952   1.29539   48.458
 5956.00    1.31487   1.29406   48.371
 5957.00    1.31528   1.29446   48.352
 5958.00    1.31105   1.29942   48.502
 5959.00    1.31868   1.30808   48.618
 5960.00    1.32856   1.31697   48.496
 5961.00    1.32788   1.32304   48.031
 5962.00    1.32942   1.32506   47.527
 5963.00    1.32917   1.32337   47.269
 5964.00    1.32644   1.31943   47.189
 5965.00    1.32242   1.31571   47.257
 5966.00    1.32427   1.31468   47.482
 5967.00    1.32838   1.31695   47.679
 5968.00    1.32135   1.32096   47.842
 5969.00    1.31620   1.32504   47.816
 5970.00    1.32053   1.32837   47.510
 5971.00    1.32383   1.33007   47.311
 5972.00    1.32893   1.32887   47.283
 5973.00    1.32514   1.32367   47.209
 5974.00    1.30962   1.31445   47.136
 5975.00    1.30264   1.30329   47.305
 5976.00    1.30076   1.29442   47.662
 5977.00    1.29598   1.29167   48.034
 5978.00    1.29815   1.29578   48.383
 5979.00    1.30864   1.30344   48.637
 5980.00    1.31527   1.30900   48.543
 5981.00    1.30942   1.30764   48.164
 5982.00    1.29960   1.29894   47.906
 5983.00    1.29181   1.28783   47.945
 5984.00    1.28689   1.28136   48.267
 5985.00    1.29017   1.28318   48.696
 5986.00    1.30180   1.29112   48.993
 5987.00    1.30537   1.30020   48.934
 5988.00    1.30793   1.30681   48.502
 5989.00    1.31185   1.30980   48.131
 5990.00    1.31281   1.31019   47.945
 5991.00    1.31125   1.31099   47.738
 5992.00    1.31152   1.31481   47.713
 5993.00    1.31455   1.32020   47.830
 5994.00    1.31317   1.32258   47.699
 5995.00    1.31310   1.31924   47.331
 5996.00    1.30961   1.31214   47.112
 5997.00    1.30325   1.30605   47.313
 5998.00    1.30273   1.30431   47.665
 5999.00    1.30518   1.30619   47.908
 6000.00    1.30689   1.30806   48.036
 6001.00    1.30388   1.30718   48.003
 6002.00    1.29947   1.30416   47.999
 6003.00    1.29710   1.30146   48.220
 6004.00    1.29915   1.29943   48.431
 6005.00    1.29844   1.29529   48.461
 6006.00    1.28680   1.28778   48.356
 6007.00    1.27853   1.28092   48.332
 6008.00    1.27723   1.28090   48.592
 6009.00    1.28168   1.28865   49.055
 6010.00    1.29134   1.29766   49.213
 6011.00    1.29026   1.30091   48.794
 6012.00    1.28348   1.29808   48.246
 6013.00    1.28668   1.29397   48.110
 6014.00    1.29230   1.29200   48.398
 6015.00    1.29033   1.29170   48.705
 6016.00    1.28918   1.29130   48.611
 6017.00    1.29115   1.28999   48.504
 6018.00    1.28469   1.28737   48.665
 6019.00    1.27378   1.28346   48.807
 6020.00    1.26757   1.28017   48.743
 6021.00    1.26911   1.28009   48.793
 6022.00    1.27410   1.28380   49.071
 6023.00    1.27940   1.29002   49.050
 6024.00    1.28570   1.29741   48.734
 6025.00    1.29067   1.30485   48.553
 6026.00    1.29332   1.31136   48.490
 6027.00    1.29357   1.31689   48.272
 6028.00    1.29684   1.32191   48.069
 6029.00    1.30128   1.32612   47.826
 6030.00    1.30324   1.32920   47.577
 6031.00    1.30952   1.33187   47.473
 6032.00    1.31109   1.33466   47.466
 6033.00    1.30929   1.33718   47.549
 6034.00    1.31077   1.33894   47.532
 6035.00    1.31545   1.33972   47.349
 6036.00    1.31403   1.33913   47.194
 6037.00    1.31174   1.33679   47.147
 6038.00    1.30714   1.33303   47.085
 6039.00    1.29948   1.32893   47.086
 6040.00    1.29992   1.32575   47.293
 6041.00    1.29587   1.32425   47.458
 6042.00    1.29220   1.32513   47.579
 6043.00    1.29836   1.32905   47.566
 6044.00    1.30592   1.33509   47.474
 6045.00    1.30907   1.34073   47.294
 6046.00    1.30429   1.34436   46.949
 6047.00    1.30322   1.34616   46.837
 6048.00    1.30964   1.34681   46.877
 6049.00    1.30570   1.34656   46.824
 6050.00    1.30111   1.34516   46.825
 6051.00    1.30099   1.34205   46.958
 6052.00    1.30113   1.33700   47.089
 6053.00    1.29662   1.33067   47.148
 6054.00    1.29010   1.32434   47.220
 6055.00    1.29201   1.31953   47.382
 6056.00    1.29229   1.31788   47.549
 6057.00    1.29332   1.32006   47.769
 6058.00    1.29983   1.32471   47.963
 6059.00    1.30226   1.32896   47.950
 6060.00    1.29923   1.32978   47.742
 6061.00    1.29614   1.32514   47.486
 6062.00    1.28745   1.31507   47.442
 6063.00    1.28341   1.30276   47.549
 6064.00    1.28263   1.29426   48.033
 6065.00    1.04058   1.29524   -1.000
 6066.00    0.97723   1.30642   -1.000
 6067.00    1.21252   1.32255   -1.000
 6068.00    1.15133   1.33670   -1.000
 6069.00    0.67507   1.34540   -1.000
 6070.00    0.67051   1.34903   -1.000
 6071.00    1.13433   1.34894   -1.000
 6072.00    1.30110   1.34663   46.753
 6073.00    1.31441   1.34442   45.844
 6074.00    0.87430   1.34298   -1.000
 6075.00    0.64931   1.33969   -1.000
 6076.00    1.09257   1.33252   -1.000
 6077.00    1.30045   1.32322   47.163
 6078.00    1.26659   1.31527   47.386
 6079.00    1.27100   1.31007   47.652
 6080.00    1.27150   1.30638   47.989
 6081.00    1.27422   1.30317   48.317
 6082.00    1.27248   1.30118   48.433
 6083.00    1.26812   1.30112   48.457
 6084.00    1.26792   1.30256   48.566
 6085.00    1.26673   1.30494   48.619
 6086.00    1.26911   1.30774   48.586
 6087.00    1.27646   1.30952   48.539
 6088.00    1.27677   1.30842   48.429
 6089.00    1.27073   1.30439   48.248
 6090.00    1.26365   1.30008   48.236
 6091.00    1.26386   1.29865   48.475
 6092.00    1.27065   1.30139   48.722
 6093.00    1.28038   1.30725   48.775
 6094.00    1.28460   1.31381   48.553
 6095.00    1.28278   1.31889   48.271
 6096.00    1.28363   1.32206   48.016
 6097.00    1.28009   1.32413   47.782
 6098.00    1.27635   1.32410   47.721
 6099.00    1.27402   1.31791   47.815
 6100.00    1.26194   1.30229   47.883
 6101.00    1.23939   1.28118   47.890
 6102.00    1.22360   1.26593   48.252
 6103.00    1.22947   1.26576   49.244
 6104.00    1.25239   1.27881   50.226
 6105.00    1.26432   1.29521   50.266
 6106.00    1.26737   1.30710   49.464
 6107.00    1.27022   1.31362   48.620
 6108.00    1.26667   1.31743   48.256
 6109.00    1.26107   1.31988   48.339
 6110.00    1.26258   1.32091   48.498
 6111.00    1.26887   1.32147   48.524
 6112.00    1.27339   1.32305   48.444
 6113.00    1.27035   1.32534   48.267
 6114.00    1.26730   1.32632   48.175
 6115.00    1.26587   1.32514   48.024
 6116.00    1.26481   1.32259   47.839
 6117.00    1.26304   1.31814   47.921
 6118.00    1.25659   1.30920   48.205
 6119.00    1.24687   1.29471   48.374
 6120.00    1.23343   1.27822   48.529
 6121.00    1.22039   1.26685   49.068
 6122.00    1.21718   1.26655   49.760
 6123.00    1.23054   1.27645   50.292
 6124.00    1.24707   1.28900   50.491
 6125.00    1.25181   1.29677   49.973
 6126.00    1.25203   1.29827   49.222
 6127.00    1.25144   1.29732   48.985
 6128.00    1.24994   1.29888   49.189
 6129.00    1.25163   1.30524   49.273
 6130.00    1.25767   1.31435   49.161
 6131.00    1.26257   1.32121   48.872
 6132.00    1.25843   1.32025   48.417
 6133.00    1.25132   1.30699   48.178
 6134.00    1.24057   1.28075   48.217
 6135.00    1.21278   1.24899   48.541
 6136.00    1.18613   1.22646   49.412
 6137.00    1.18491   1.22453   50.780
 6138.00    1.20274   1.24061   52.166
 6139.00    1.22162   1.26068   52.754
 6140.00    1.22758   1.27361   51.933
 6141.00    1.22378   1.28038   50.453
 6142.00    1.22165   1.28805   49.558
 6143.00    1.23535   1.29886   49.445
 6144.00    1.25218   1.30861   49.559
 6145.00    1.25284   1.31283   49.279
 6146.00    1.24734   1.31080   48.691
 6147.00    1.24176   1.30482   48.416
 6148.00    1.23765   1.29809   48.554
 6149.00    1.23959   1.29353   48.843
 6150.00    1.24108   1.29274   49.184
 6151.00    1.23916   1.29496   49.500
 6152.00    1.23804   1.29708   49.612
 6153.00    1.23263   1.29617   49.486
 6154.00    1.23119   1.29228   49.195
 6155.00    1.23354   1.28792   49.014
 6156.00    1.23444   1.28456   49.261
 6157.00    1.23390   1.28000   49.607
 6158.00    1.22934   1.26896   49.715
 6159.00    1.21513   1.24739   49.843
 6160.00    1.18814   1.21819   50.257
 6161.00    1.16381   1.19253   51.065
 6162.00    1.15781   1.18245   52.411
 6163.00    1.16679   1.19125   53.997
 6164.00    1.18483   1.21133   54.927
 6165.00    1.20243   1.23075   54.581
 6166.00    1.20496   1.24069   53.275
 6167.00    1.20054   1.23894   52.167
 6168.00    1.19390   1.23068   51.758
 6169.00    1.18332   1.22559   51.779
 6170.00    1.18620   1.23057   52.257
 6171.00    1.19968   1.24391   52.879
 6172.00    1.20897   1.25819   52.844
 6173.00    1.21350   1.26795   52.015
 6174.00    1.21329   1.27284   51.145
 6175.00    1.21507   1.27512   50.910
 6176.00    1.21784   1.27710   50.998
 6177.00    1.22111   1.28009   50.931
 6178.00    1.22684   1.28388   50.814
 6179.00    1.22765   1.28787   50.696
 6180.00    1.22696   1.29208   50.487
 6181.00    1.22860   1.29642   50.270
 6182.00    1.23331   1.29947   50.107
 6183.00    1.23781   1.29926   49.903
 6184.00    1.23377   1.29482   49.729
 6185.00    1.22795   1.28678   49.746
 6186.00    1.22475   1.27695   49.905
 6187.00    1.21766   1.26663   50.217
 6188.00    1.20845   1.25527   50.722
 6189.00    1.20353   1.24263   51.267
 6190.00    1.19796   1.23252   51.768
 6191.00    1.18772   1.23152   52.188
 6192.00    1.19169   1.24242   52.741
 6193.00    1.21067   1.26057   53.245
 6194.00    1.22408   1.27788   53.000
 6195.00    1.23033   1.28861   51.915
 6196.00    1.23265   1.29084   50.851
 6197.00    1.22669   1.28541   50.364
 6198.00    1.21981   1.27619   50.222
 6199.00    1.21568   1.26964   50.397
 6200.00    1.21188   1.27078   50.905
 6201.00    1.21474   1.27907   51.407
 6202.00    1.22421   1.28947   51.534
 6203.00    1.22599   1.29729   51.175
 6204.00    1.22455   1.30135   50.554
 6205.00    1.22543   1.30320   -1.000
 6206.00    1.22096   1.30433   -1.000
 6207.00    1.22305   1.30459   -1.000
 6208.00    1.23214   1.30262   50.099
 6209.00    1.23086   1.29709   50.221
 6210.00    1.22109   1.28707   50.310
 6211.00    1.21385   1.27242   50.423
 6212.00    1.20400   1.25523   50.807
 6213.00    1.19100   1.24025   51.246
 6214.00    1.18667   1.23225   51.699
 6215.00    1.19385   1.23221   52.381
 6216.00    1.19987   1.23633   53.042
 6217.00    1.19802   1.23926   53.321
 6218.00    1.19099   1.23866   52.943
 6219.00    1.19092   1.23709   52.452
 6220.00    1.19478   1.23858   52.621
 6221.00    1.19703   1.24412   52.713
 6222.00    1.20550   1.25115   52.354
 6223.00    1.21183   1.25687   52.376
 6224.00    1.21282   1.26036   54.786
 6225.00    1.21123   1.26131   55.668
 6226.00    1.20802   1.25816   52.949
 6227.00    1.20311   1.24852   51.850
 6228.00    1.19327   1.23227   51.973
 6229.00    1.17748   1.21453   52.141
 6230.00    1.16155   1.20387   52.698
 6231.00    1.15959   1.20628   53.536
 6232.00    1.17518   1.22075   54.314
 6233.00    1.19313   1.24049   54.458
 6234.00    1.20786   1.25720   53.846
 6235.00    1.21476   1.26497   52.901
 6236.00    1.20732   1.26257   51.968
 6237.00    1.19669   1.25315   51.483
 6238.00    1.19220   1.24170   51.618
 6239.00    1.18818   1.23214   52.101
 6240.00    1.18277   1.22552   52.637
 6241.00    1.17968   1.22015   53.186
 6242.00    1.17124   1.21437   53.558
 6243.00    1.16513   1.20901   53.617
 6244.00    1.16500   1.20690   53.819
 6245.00    1.16064   1.21081   54.223
 6246.00    1.16073   1.22119   54.350
 6247.00    1.17096   1.23484   54.112
 6248.00    1.18420   1.24563   53.640
 6249.00    1.18758   1.24780   53.011
 6250.00    1.17925   1.23957   52.396
 6251.00    1.16615   1.22477   52.138
 6252.00    1.14931   1.21033   52.419
 6253.00    1.13891   1.20102   53.212
 6254.00    1.14015   1.19640   54.043
 6255.00    1.13718   1.19320   54.515
 6256.00    1.13526   1.19012   54.747
 6257.00    1.13982   1.18971   54.789
 6258.00    1.14693   1.19553   55.047
 6259.00    1.15818   1.20825   55.581
 6260.00    1.16655   1.22490   55.660
 6261.00    1.17400   1.24078   55.038
 6262.00    1.17554   1.25163   -1.000
 6263.00    1.17236   1.25580   -1.000
 6264.00    1.17192   1.25551   -1.000
 6265.00    1.17256   1.25502   -1.000
 6266.00    1.17336   1.25639   -1.000
 6267.00    1.17816   1.25795   -1.000
 6268.00    1.18231   1.25770   52.703
 6269.00    1.17837   1.25647   -1.000
 6270.00    1.17542   1.25663   -1.000
 6271.00    1.18144   1.25873   -1.000
 6272.00    1.18462   1.26059   -1.000
 6273.00    1.18123   1.25941   -1.000
 6274.00    1.18282   1.25397   52.315
 6275.00    1.18128   1.24463   52.340
 6276.00    1.17458   1.23248   52.628
 6277.00    1.16229   1.21897   53.048
 6278.00    1.13821   1.20658   53.707
 6279.00    1.11251   1.19897   -1.000
 6280.00    1.09466   1.19931   -1.000
 6281.00    1.09356   1.20799   -1.000
 6282.00    1.09987   1.22213   -1.000
 6283.00    1.10378   1.23751   -1.000
 6284.00    1.11027   1.25116   -1.000
 6285.00    1.11800   1.26211   -1.000
 6286.00    1.12874   1.27021   -1.000
 6287.00    1.14466   1.27458   -1.000
 6288.00    1.15666   1.27400   -1.000
 6289.00    1.16290   1.26875   -1.000
 6290.00    1.16198   1.26128   -1.000
 6291.00    1.15540   1.25482   -1.000
 6292.00    1.15553   1.25089   -1.000
 6293.00    1.16043   1.24819   -1.000
 6294.00    1.16181   1.24399   -1.000
 6295.00    1.15482   1.23726   -1.000
 6296.00    1.14477   1.23014   -1.000
 6297.00    1.14173   1.22547   -1.000
 6298.00    1.13484   1.22326   -1.000
 6299.00    1.12297   1.22118   -1.000
 6300.00    1.10915   1.21850   -1.000
 6301.00    1.08855   1.21797   -1.000
 6302.00    1.07500   1.22275   -1.000
 6303.00    1.08331   1.23273   -1.000
 6304.00    1.11732   1.24499   -1.000
 6305.00    1.15095   1.25679   -1.000
 6306.00    1.16135   1.26640   -1.000
 6307.00    1.16479   1.27220   -1.000
 6308.00    1.16419   1.27308   -1.000
 6309.00    1.15843   1.26972   -1.000
 6310.00    1.15642   1.26433   -1.000
 6311.00    1.15333   1.25864   -1.000
 6312.00    1.14830   1.25262   -1.000
 6313.00    1.14295   1.24546   -1.000
 6314.00    1.13495   1.23766   -1.000
 6315.00    1.13325   1.23100   -1.000
 6316.00    1.13469   1.22681   -1.000
 6317.00    1.12880   1.22613   -1.000
 6318.00    1.12820   1.23020   -1.000
 6319.00    1.13452   1.23875   -1.000
 6320.00    1.14217   1.24915   -1.000
 6321.00    1.14895   1.25894   -1.000
 6322.00    1.15326   1.26757   -1.000
 6323.00    1.16233   1.27507   -1.000
 6324.00    1.16878   1.28067   -1.000
 6325.00    1.16914   1.28351   -1.000
 6326.00    1.16854   1.28403   -1.000
 6327.00    1.16732   1.28359   -1.000
 6328.00    1.17042   1.28321   -1.000
 6329.00    1.17183   1.28346   -1.000
 6330.00    1.16741   1.28474   -1.000
 6331.00    1.16847   1.28581   -1.000
 6332.00    1.16981   1.28317   -1.000
 6333.00    1.16337   1.27417   -1.000
 6334.00    1.15087   1.26094   -1.000
 6335.00    1.14015   1.25002   -1.000
 6336.00    1.14352   1.24712   -1.000
 6337.00    1.14436   1.25274   -1.000
 6338.00    1.13081   1.26310   -1.000
 6339.00    1.14466   1.27337   -1.000
 6340.00    1.17078   1.27957   -1.000
 6341.00    1.16919   1.27991   -1.000
 6342.00    1.17083   1.27599   -1.000
 6343.00    1.17010   1.27217   -1.000
 6344.00    1.16932   1.27235   -1.000
 6345.00    1.17279   1.27728   -1.000
 6346.00    1.17217   1.28495   -1.000
 6347.00    1.17276   1.29294   -1.000
 6348.00    1.17913   1.29961   -1.000
 6349.00    1.18360   1.30390   -1.000
 6350.00    1.18485   1.30493   -1.000
 6351.00    1.18734   1.30196   -1.000
 6352.00    1.18571   1.29505   -1.000
 6353.00    1.17650   1.28592   -1.000
 6354.00    1.17031   1.27741   -1.000
 6355.00    1.16584   1.27077   -1.000
 6356.00    1.15937   1.26461   -1.000
 6357.00    1.15705   1.25741   -1.000
 6358.00    1.15749   1.24986   -1.000
 6359.00    1.15397   1.24357   -1.000
 6360.00    1.14966   1.23930   -1.000
 6361.00    1.15001   1.23749   -1.000
 6362.00    1.15110   1.23897   -1.000
 6363.00    1.14921   1.24433   -1.000
 6364.00    1.15055   1.25300   -1.000
 6365.00    1.15133   1.26338   -1.000
 6366.00    1.14946   1.27338   -1.000
 6367.00    1.15187   1.28111   -1.000
 6368.00    1.16212   1.28575   -1.000
 6369.00    1.17033   1.28844   -1.000
 6370.00    1.17127   1.29126   -1.000
 6371.00    1.17439   1.29533   -1.000
 6372.00    1.17863   1.29985   -1.000
 6373.00    1.17784   1.30303   -1.000
 6374.00    1.17144   1.30364   -1.000
 6375.00    1.16723   1.30163   -1.000
 6376.00    1.17015   1.29759   -1.000
 6377.00    1.16801   1.29250   -1.000
 6378.00    1.16417   1.28769   -1.000
 6379.00    1.16382   1.28444   -1.000
 6380.00    1.15806   1.28344   -1.000
 6381.00    1.15146   1.28439   -1.000
 6382.00    1.15031   1.28622   -1.000
 6383.00    1.15227   1.28812   -1.000
 6384.00    1.15341   1.29015   -1.000
 6385.00    1.15294   1.29267   -1.000
 6386.00    1.15684   1.29523   -1.000
 6387.00    1.15856   1.29677   -1.000
 6388.00    1.15146   1.29605   -1.000
 6389.00    1.14184   1.29157   -1.000
 6390.00    1.13482   1.28225   -1.000
 6391.00    1.12260   1.26958   -1.000
 6392.00    1.10784   1.25907   -1.000
 6393.00    1.09937   1.25716   -1.000
 6394.00    1.10667   1.26521   -1.000
 6395.00    1.11296   1.27685   -1.000
 6396.00    1.11110   1.28291   -1.000
 6397.00    1.10605   1.27831   -1.000
 6398.00    1.08985   1.26644   -1.000
 6399.00    1.07250   1.25720   -1.000
 6400.00    1.06514   1.25917   -1.000
 6401.00    1.07566   1.27244   -1.000
 6402.00    1.09051   1.28909   -1.000
 6403.00    1.09203   1.30046   -1.000
 6404.00    1.08922   1.30242   -1.000
 6405.00    1.08588   1.29625   -1.000
 6406.00    1.07555   1.28663   -1.000
 6407.00    1.06156   1.27891   -1.000
 6408.00    1.05346   1.27549   -1.000
 6409.00    1.04500   1.27482   -1.000
 6410.00    1.03633   1.27476   -1.000
 6411.00    1.03185   1.27538   -1.000
 6412.00    1.02952   1.27745   -1.000
 6413.00    1.02882   1.28070   -1.000
 6414.00    1.02265   1.28398   -1.000
 6415.00    1.01630   1.28600   -1.000
 6416.00    1.01575   1.28519   -1.000
 6417.00    1.00616   1.28008   -1.000
 6418.00    0.99096   1.27117   -1.000
 6419.00    0.97821   1.26253   -1.000
 6420.00    0.96634   1.25997   -1.000
 6421.00    0.96148   1.26663   -1.000
 6422.00    0.96287   1.27974   -1.000
 6423.00    0.96702   1.29333   -1.000
 6424.00    0.96401   1.30338   -1.000
 6425.00    0.95478   1.30895   -1.000
 6426.00    0.94977   1.30955   -1.000
 6427.00    0.94502   1.30371   -1.000
 6428.00    0.93431   1.29135   -1.000
