###################################################################
## OUTPUT of StarlightChains_v04.for    [Cid@UFSC - 01/Apr/2007] ##
###################################################################

## Some input info
NGC6528_a_1.cxt                          [arq_obs]
Base.BC03.S                              [arq_base]
NGC6528_a_1.msk                          [arq_masks]
StCv04.C99.config                        [arq_config]
  150                                    [N_base]
    0                                    [N_YAV_components = # of components with extra extinction!]
    0                                    [i_FitPowerLaw (1/0 = Yes/No)]
-9.99                                    [alpha_PowerLaw]
CCM                                      [red_law_option]
 1.458241                                [q_norm = A(l_norm)/A(V)]

## (Re)Sampling Parameters
 3359.00                                 [l_ini (A)]
 6428.00                                 [l_fin (A)]
    1.00                                 [dl    (A)]     (OBS: dl_cushion =    50.00 A)

## Normalization info
 4020.00                                 [l_norm (A) - for base]
 4010.00                                 [llow_norm (A) - window for f_obs]
 4060.00                                 [lupp_norm (A) - window for f_obs]
3.287291E-15                             [fobs_norm (in input units)]

## S/N
 4730.00                                 [llow_SN (A) - window for S/N]
 4780.00                                 [lupp_SN (A) - window for S/N]
  27.037                                 [S/N in S/N window]
  13.551                                 [S/N in norm. window]
 247.699                                 [S/N_err in S/N window]
 124.147                                 [S/N_err in norm. window]
  1.0000                                 [fscale_chi2]

## etc...
  2147483606                             [idum_orig]
  3066                                   [NOl_eff]
   687                                   [Nl_eff]
  2379    NSIGMA                         [Ntot_cliped & clip_method]
  3794630                                [Nglobal_steps]
   7                                     [N_chains]
  25                                     [NEX0s_base = N_base in EX0s-fits]
 0   0   1      104   2.0   2.945E+02    [Clip-Bug, RC-Crash & Burn-In warning-flags, n_censored_weights, wei_nsig_threshold & wei_limit]
   144    143.729    143.729      0.000  [idt_all, wdt_TotTime, wdt_UsrTime & wdt_SysTime (sec)]

## Synthesis Results - Best model ##

 2.72480E+00                             [chi2/Nl_eff]
     2.38370                             [adev (%)]

   104.38046                             [sum-of-x (%)]
 2.13639E-14                             [Flux_tot (units of input spectrum!)]
 1.59321E-09                             [Mini_tot (???)]
 8.06486E-10                             [Mcor_tot (???)]

  -7.06                                  [v0_min  (km/s)]
 108.23                                  [vd_min  (km/s)]
 1.3616                                  [AV_min  (mag)]
 0.0000                                  [YAV_min (mag)]

# j     x_j(%)      Mini_j(%)     Mcor_j(%)     age_j(yr)     Z_j      (L/M)_j    YAV?  Mstars   component_j        a/Fe...       SSP_chi2r SSP_adev(%)   SSP_AV   SSP_x(%)
  1      2.8458     4.4803E-03    8.8508E-03    1.000000E+06  0.00010  8.160E-03    0   1.0000   age020_m22            0.0000     4.4736E+03    54.5050   4.0000    97.9245
  2      0.0000     0.0000E+00    0.0000E+00    3.160000E+06  0.00010  4.759E-02    0   1.0000   age045_m22            0.0000     5.0957E+02    15.0105   4.0000   100.8693
  3      8.0044     5.3224E-03    1.0075E-02    5.010000E+06  0.00010  1.932E-02    0   0.9582   age055_m22            0.0000     9.4464E+02    25.7641   4.0000    95.0560
  4      0.0000     0.0000E+00    0.0000E+00    6.610000E+06  0.00010  9.973E-03    0   0.9297   age061_m22            0.0000     4.5012E+03    53.5736   4.0000   101.1923
  5      0.0000     0.0000E+00    0.0000E+00    8.710000E+06  0.00010  7.690E-03    0   0.9030   age067_m22            0.0000     4.4244E+03    53.1011   4.0000   101.6756
  6      0.0000     0.0000E+00    0.0000E+00    1.000000E+07  0.00010  6.375E-03    0   0.8902   age070_m22            0.0000     4.4163E+03    52.8966   4.0000   101.8520
  7      0.1712     4.5118E-04    7.6554E-04    1.445000E+07  0.00010  4.874E-03    0   0.8589   age078_m22            0.0000     3.6868E+03    48.7790   4.0000   104.8389
  8      0.0000     0.0000E+00    0.0000E+00    2.512000E+07  0.00010  4.103E-03    0   0.8174   age090_m22            0.0000     2.4083E+03    38.9148   4.0000   109.8809
  9      0.9365     3.2926E-03    5.0931E-03    4.000000E+07  0.00010  3.654E-03    0   0.7830   age104_m22            0.0000     1.7698E+03    30.6017   4.0000   111.9881
 10      0.0000     0.0000E+00    0.0000E+00    5.500000E+07  0.00010  3.093E-03    0   0.7597   age110_m22            0.0000     1.5593E+03    27.5638   4.0000   112.4439
 11      0.0000     0.0000E+00    0.0000E+00    1.015200E+08  0.00010  2.431E-03    0   0.7138   age116_m22            0.0000     1.1539E+03    21.4661   4.0000   111.1628
 12      0.0000     0.0000E+00    0.0000E+00    1.609000E+08  0.00010  1.319E-03    0   0.6775   age120_m22            0.0000     7.5989E+02    17.1094   4.0000   106.5659
 13      0.0000     0.0000E+00    0.0000E+00    2.861200E+08  0.00010  1.075E-03    0   0.6412   age125_m22            0.0000     9.8368E+02    20.0623   4.0000   110.0192
 14      0.0000     0.0000E+00    0.0000E+00    5.088000E+08  0.00010  7.183E-04    0   0.6083   age130_m22            0.0000     9.7145E+02    20.8624   4.0000   107.4319
 15      0.0000     0.0000E+00    0.0000E+00    9.047900E+08  0.00010  4.524E-04    0   0.5785   age135_m22            0.0000     9.5418E+02    21.0781   3.8794   107.1370
 16      0.0000     0.0000E+00    0.0000E+00    1.278050E+09  0.00010  3.018E-04    0   0.5588   age138_m22            0.0000     6.5823E+02    17.7271   3.3733   105.5743
 17      0.0000     0.0000E+00    0.0000E+00    1.434000E+09  0.00010  2.691E-04    0   0.5532   age139_m22            0.0000     5.9775E+02    16.9738   3.2165   105.1385
 18      0.0000     0.0000E+00    0.0000E+00    2.500000E+09  0.00010  1.582E-04    0   0.5296   age150_m22            0.0000     5.8665E+02    17.0735   3.1303   105.7961
 19      0.0000     0.0000E+00    0.0000E+00    4.250000E+09  0.00010  1.007E-04    0   0.5110   age158_m22            0.0000     4.8492E+02    15.3360   2.9741   104.5343
 20      0.0000     0.0000E+00    0.0000E+00    6.250000E+09  0.00010  6.869E-05    0   0.4985   age166_m22            0.0000     4.0834E+02    13.8516   2.9128   102.2294
 21      0.0000     0.0000E+00    0.0000E+00    7.500000E+09  0.00010  5.873E-05    0   0.4931   age171_m22            0.0000     4.0821E+02    13.9270   2.9142   101.6741
 22      0.0000     0.0000E+00    0.0000E+00    1.000000E+10  0.00010  4.481E-05    0   0.4854   age181_m22            0.0000     3.9999E+02    13.7761   2.8722   101.3483
 23      0.0000     0.0000E+00    0.0000E+00    1.300000E+10  0.00010  3.489E-05    0   0.4791   age193_m22            0.0000     3.8215E+02    13.4086   2.8064   100.9054
 24      0.0000     0.0000E+00    0.0000E+00    1.500000E+10  0.00010  3.035E-05    0   0.4766   age201_m22            0.0000     3.7272E+02    13.2341   2.7657   100.7445
 25      0.9209     4.7132E-01    4.4087E-01    1.800000E+10  0.00010  2.510E-05    0   0.4735   age213_m22            0.0000     3.5328E+02    12.8416   2.6932   100.2325
 26      0.0000     0.0000E+00    0.0000E+00    1.000000E+06  0.00040  8.458E-03    0   1.0000   age020_m32            0.0000     4.5381E+03    54.4537   4.0000    98.7130
 27      0.0000     0.0000E+00    0.0000E+00    3.160000E+06  0.00040  3.973E-02    0   1.0000   age045_m32            0.0000     2.2268E+03    37.5504   4.0000   109.3739
 28      0.0000     0.0000E+00    0.0000E+00    5.010000E+06  0.00040  1.935E-02    0   0.9532   age055_m32            0.0000     3.1301E+03    45.2323   4.0000   104.4406
 29      0.0000     0.0000E+00    0.0000E+00    6.610000E+06  0.00040  1.204E-02    0   0.9243   age061_m32            0.0000     3.9615E+03    50.6591   4.0000   103.2935
 30      0.0000     0.0000E+00    0.0000E+00    8.710000E+06  0.00040  9.433E-03    0   0.9001   age067_m32            0.0000     3.8062E+03    49.6612   4.0000   104.2399
 31      0.0000     0.0000E+00    0.0000E+00    1.000000E+07  0.00040  8.053E-03    0   0.8877   age070_m32            0.0000     3.6765E+03    48.8849   4.0000   104.6764
 32      0.0000     0.0000E+00    0.0000E+00    1.445000E+07  0.00040  7.027E-03    0   0.8578   age078_m32            0.0000     2.2755E+03    38.0149   4.0000   107.6677
 33      0.0000     0.0000E+00    0.0000E+00    2.512000E+07  0.00040  4.707E-03    0   0.8166   age090_m32            0.0000     1.6040E+03    30.4249   4.0000   109.0415
 34      0.0000     0.0000E+00    0.0000E+00    4.000000E+07  0.00040  3.714E-03    0   0.7827   age104_m32            0.0000     1.2648E+03    24.5922   4.0000   109.8216
 35      0.0000     0.0000E+00    0.0000E+00    5.500000E+07  0.00040  2.982E-03    0   0.7593   age110_m32            0.0000     1.1788E+03    22.8077   4.0000   110.0772
 36      0.0000     0.0000E+00    0.0000E+00    1.015200E+08  0.00040  2.188E-03    0   0.7143   age116_m32            0.0000     9.6713E+02    19.2347   4.0000   110.0259
 37      0.0000     0.0000E+00    0.0000E+00    1.609000E+08  0.00040  1.690E-03    0   0.6856   age120_m32            0.0000     9.3268E+02    19.6516   4.0000   109.2017
 38      0.0000     0.0000E+00    0.0000E+00    2.861200E+08  0.00040  1.152E-03    0   0.6509   age125_m32            0.0000     9.1370E+02    20.3259   4.0000   106.8254
 39      0.0000     0.0000E+00    0.0000E+00    5.088000E+08  0.00040  7.331E-04    0   0.6182   age130_m32            0.0000     9.1566E+02    20.6059   3.9032   106.0588
 40      0.0000     0.0000E+00    0.0000E+00    9.047900E+08  0.00040  3.960E-04    0   0.5890   age135_m32            0.0000     6.5403E+02    17.3558   3.4190   105.3735
 41      0.0000     0.0000E+00    0.0000E+00    1.278050E+09  0.00040  2.854E-04    0   0.5687   age138_m32            0.0000     6.1181E+02    17.2840   3.1752   106.9148
 42      0.0000     0.0000E+00    0.0000E+00    1.434000E+09  0.00040  2.531E-04    0   0.5632   age139_m32            0.0000     6.0157E+02    17.2559   3.1219   106.8010
 43      0.0000     0.0000E+00    0.0000E+00    2.500000E+09  0.00040  1.488E-04    0   0.5386   age150_m32            0.0000     5.0281E+02    15.8802   2.8580   105.2634
 44      0.0000     0.0000E+00    0.0000E+00    4.250000E+09  0.00040  9.082E-05    0   0.5199   age158_m32            0.0000     3.6815E+02    13.1956   2.7516   102.5788
 45      0.0000     0.0000E+00    0.0000E+00    6.250000E+09  0.00040  6.362E-05    0   0.5076   age166_m32            0.0000     3.1125E+02    11.7634   2.7178    99.7212
 46      0.6223     1.5116E-01    1.5011E-01    7.500000E+09  0.00040  5.289E-05    0   0.5027   age171_m32            0.0000     2.9294E+02    11.3400   2.6703    98.6496
 47      3.9141     1.2659E+00    1.2374E+00    1.000000E+10  0.00040  3.972E-05    0   0.4948   age181_m32            0.0000     2.7268E+02    10.9021   2.5913    97.4435
 48      0.0000     0.0000E+00    0.0000E+00    1.300000E+10  0.00040  3.283E-05    0   0.4870   age193_m32            0.0000     2.9072E+02    11.3833   2.5461    99.8703
 49      0.0000     0.0000E+00    0.0000E+00    1.500000E+10  0.00040  2.925E-05    0   0.4854   age201_m32            0.0000     3.0870E+02    11.8599   2.5300   101.2493
 50      0.3425     1.7822E-01    1.6966E-01    1.800000E+10  0.00040  2.469E-05    0   0.4819   age213_m32            0.0000     3.1080E+02    11.9685   2.4894   101.6806
 51      0.0000     0.0000E+00    0.0000E+00    1.000000E+06  0.00400  1.114E-02    0   1.0000   age020_m42            0.0000     4.2652E+03    53.1456   4.0000    99.2590
 52      0.0000     0.0000E+00    0.0000E+00    3.160000E+06  0.00400  4.073E-02    0   0.9999   age045_m42            0.0000     1.4953E+03    29.7519   4.0000   109.4861
 53      0.0000     0.0000E+00    0.0000E+00    5.010000E+06  0.00400  2.534E-02    0   0.9488   age055_m42            0.0000     2.5241E+03    40.9441   4.0000   106.1959
 54      0.0000     0.0000E+00    0.0000E+00    6.610000E+06  0.00400  2.583E-02    0   0.9220   age061_m42            0.0000     1.2540E+03    25.8236   4.0000   108.0203
 55      0.0000     0.0000E+00    0.0000E+00    8.710000E+06  0.00400  1.706E-02    0   0.8983   age067_m42            0.0000     1.1241E+03    24.8381   4.0000   104.7261
 56      0.0000     0.0000E+00    0.0000E+00    1.000000E+07  0.00400  1.271E-02    0   0.8862   age070_m42            0.0000     1.2030E+03    26.3935   4.0000   103.5347
 57      0.2887     4.8385E-04    8.1925E-04    1.445000E+07  0.00400  7.666E-03    0   0.8571   age078_m42            0.0000     1.8655E+03    34.8800   4.0000   104.1788
 58      0.0000     0.0000E+00    0.0000E+00    2.512000E+07  0.00400  5.070E-03    0   0.8174   age090_m42            0.0000     9.6631E+02    23.6606   4.0000   103.6646
 59      0.0000     0.0000E+00    0.0000E+00    4.000000E+07  0.00400  3.505E-03    0   0.7851   age104_m42            0.0000     5.7301E+02    18.2024   4.0000   101.7884
 60      0.0000     0.0000E+00    0.0000E+00    5.500000E+07  0.00400  3.059E-03    0   0.7629   age110_m42            0.0000     6.4340E+02    16.0028   4.0000   105.7389
 61      0.0000     0.0000E+00    0.0000E+00    1.015200E+08  0.00400  2.268E-03    0   0.7207   age116_m42            0.0000     7.9954E+02    18.3699   4.0000   108.1855
 62      0.0000     0.0000E+00    0.0000E+00    1.609000E+08  0.00400  1.720E-03    0   0.6930   age120_m42            0.0000     7.6872E+02    18.6195   4.0000   107.1373
 63      0.0000     0.0000E+00    0.0000E+00    2.861200E+08  0.00400  1.079E-03    0   0.6613   age125_m42            0.0000     7.2945E+02    18.5381   3.7392   106.0348
 64      0.0000     0.0000E+00    0.0000E+00    5.088000E+08  0.00400  6.261E-04    0   0.6313   age130_m42            0.0000     7.7030E+02    19.3841   3.5506   108.8449
 65      0.0000     0.0000E+00    0.0000E+00    9.047900E+08  0.00400  3.535E-04    0   0.6024   age135_m42            0.0000     5.5412E+02    16.3929   3.1285   109.6457
 66      0.0000     0.0000E+00    0.0000E+00    1.278050E+09  0.00400  2.677E-04    0   0.5837   age138_m42            0.0000     2.2064E+02    10.4789   2.3451   107.9627
 67      0.4611     3.1012E-02    3.5019E-02    1.434000E+09  0.00400  1.910E-04    0   0.5716   age139_m42            0.0000     2.9809E+02    11.7966   2.5278   108.6981
 68      0.0000     0.0000E+00    0.0000E+00    2.500000E+09  0.00400  9.818E-05    0   0.5463   age150_m42            0.0000     1.3012E+02     7.1651   2.2003   104.8418
 69      0.0000     0.0000E+00    0.0000E+00    4.250000E+09  0.00400  5.491E-05    0   0.5269   age158_m42            0.0000     8.1467E+01     5.6668   2.0732   102.2738
 70      0.0000     0.0000E+00    0.0000E+00    6.250000E+09  0.00400  3.857E-05    0   0.5151   age166_m42            0.0000     5.4896E+01     4.7099   1.9166   101.1575
 71      0.0000     0.0000E+00    0.0000E+00    7.500000E+09  0.00400  3.243E-05    0   0.5110   age171_m42            0.0000     4.3161E+01     4.2754   1.8211   100.6942
 72      0.0000     0.0000E+00    0.0000E+00    1.000000E+10  0.00400  2.424E-05    0   0.5028   age181_m42            0.0000     3.1693E+01     3.8697   1.7229   100.1949
 73      0.0000     0.0000E+00    0.0000E+00    1.300000E+10  0.00400  1.883E-05    0   0.4927   age193_m42            0.0000     2.6028E+01     3.7340   1.6749    99.9709
 74      0.0000     0.0000E+00    0.0000E+00    1.500000E+10  0.00400  1.685E-05    0   0.4919   age201_m42            0.0000     2.7117E+01     3.7173   1.6859    99.9351
 75      0.0000     0.0000E+00    0.0000E+00    1.800000E+10  0.00400  1.452E-05    0   0.4874   age213_m42            0.0000     2.9561E+01     3.7582   1.7133   100.0910
 76      0.0000     0.0000E+00    0.0000E+00    1.000000E+06  0.00800  1.286E-02    0   1.0000   age020_m52            0.0000     4.0977E+03    52.1055   4.0000   101.4724
 77      0.0000     0.0000E+00    0.0000E+00    3.160000E+06  0.00800  3.147E-02    0   0.9966   age045_m52            0.0000     3.8805E+03    50.7355   4.0000   103.0986
 78      0.0000     0.0000E+00    0.0000E+00    5.010000E+06  0.00800  2.664E-02    0   0.9443   age055_m52            0.0000     2.8338E+03    43.9332   4.0000   105.9167
 79      0.0000     0.0000E+00    0.0000E+00    6.610000E+06  0.00800  2.151E-02    0   0.9177   age061_m52            0.0000     5.9664E+02    19.8613   4.0000   100.0827
 80      0.0000     0.0000E+00    0.0000E+00    8.710000E+06  0.00800  1.628E-02    0   0.8948   age067_m52            0.0000     1.0619E+03    24.8574   4.0000   105.0966
 81      0.0000     0.0000E+00    0.0000E+00    1.000000E+07  0.00800  1.215E-02    0   0.8827   age070_m52            0.0000     1.6255E+03    32.2865   4.0000   106.8435
 82      0.0000     0.0000E+00    0.0000E+00    1.445000E+07  0.00800  8.739E-03    0   0.8552   age078_m52            0.0000     1.6619E+03    32.1504   4.0000   108.3738
 83      0.0000     0.0000E+00    0.0000E+00    2.512000E+07  0.00800  5.676E-03    0   0.8162   age090_m52            0.0000     1.0977E+03    22.9040   4.0000   108.5102
 84      0.0000     0.0000E+00    0.0000E+00    4.000000E+07  0.00800  3.939E-03    0   0.7841   age104_m52            0.0000     8.9330E+02    18.9329   4.0000   108.4250
 85      0.0000     0.0000E+00    0.0000E+00    5.500000E+07  0.00800  3.155E-03    0   0.7627   age110_m52            0.0000     8.6300E+02    17.7452   4.0000   109.2318
 86      0.0008     4.7809E-06    6.8247E-06    1.015200E+08  0.00800  2.206E-03    0   0.7226   age116_m52            0.0000     7.7593E+02    17.2192   4.0000   109.2978
 87      0.0000     0.0000E+00    0.0000E+00    1.609000E+08  0.00800  1.596E-03    0   0.6963   age120_m52            0.0000     7.3531E+02    18.1257   4.0000   107.0489
 88      0.0000     0.0000E+00    0.0000E+00    2.861200E+08  0.00800  1.002E-03    0   0.6665   age125_m52            0.0000     7.8220E+02    19.1178   3.7428   108.3795
 89      0.0000     0.0000E+00    0.0000E+00    5.088000E+08  0.00800  5.759E-04    0   0.6377   age130_m52            0.0000     7.2621E+02    18.0873   3.3326   112.9834
 90      0.0000     0.0000E+00    0.0000E+00    9.047900E+08  0.00800  2.972E-04    0   0.6086   age135_m52            0.0000     4.1442E+02    13.0210   2.7132   113.0641
 91      0.0000     0.0000E+00    0.0000E+00    1.278050E+09  0.00800  2.242E-04    0   0.5907   age138_m52            0.0000     1.5995E+02     8.4240   2.0952   111.6106
 92      0.0000     0.0000E+00    0.0000E+00    1.434000E+09  0.00800  1.645E-04    0   0.5787   age139_m52            0.0000     1.7081E+02     8.5167   2.2587   110.9957
 93      0.0000     0.0000E+00    0.0000E+00    2.500000E+09  0.00800  7.723E-05    0   0.5519   age150_m52            0.0000     6.8875E+01     5.6028   1.8810   107.7271
 94      0.4744     1.4681E-01    1.5430E-01    4.250000E+09  0.00800  4.151E-05    0   0.5320   age158_m52            0.0000     4.9377E+01     4.7661   1.8056   105.3103
 95      0.0000     0.0000E+00    0.0000E+00    6.250000E+09  0.00800  3.010E-05    0   0.5197   age166_m52            0.0000     2.3666E+01     3.9481   1.5741   104.2046
 96      0.0000     0.0000E+00    0.0000E+00    7.500000E+09  0.00800  2.467E-05    0   0.5139   age171_m52            0.0000     1.9866E+01     3.8535   1.5210   103.8910
 97      2.8517     1.9675E+00    1.9644E+00    1.000000E+10  0.00800  1.862E-05    0   0.5054   age181_m52            0.0000     1.3994E+01     3.9229   1.3547   103.7635
 98      0.1047     9.3819E-02    9.2447E-02    1.300000E+10  0.00800  1.433E-05    0   0.4988   age193_m52            0.0000     1.3437E+01     4.3993   1.2283   104.6661
 99      0.0026     2.6386E-03    2.5729E-03    1.500000E+10  0.00800  1.244E-05    0   0.4936   age201_m52            0.0000     1.5413E+01     4.7488   1.1899   105.2154
100      0.0007     8.5533E-04    8.2593E-04    1.800000E+10  0.00800  1.070E-05    0   0.4888   age213_m52            0.0000     1.7721E+01     5.0474   1.1456   105.1311
101      0.0000     0.0000E+00    0.0000E+00    1.000000E+06  0.02000  1.989E-02    0   1.0000   age020_m62            0.0000     4.1387E+03    52.1948   4.0000   100.3353
102      0.0000     0.0000E+00    0.0000E+00    3.160000E+06  0.02000  3.772E-02    0   0.9858   age045_m62            0.0000     3.7199E+03    49.9761   4.0000   102.6324
103      0.0000     0.0000E+00    0.0000E+00    5.010000E+06  0.02000  3.227E-02    0   0.9342   age055_m62            0.0000     2.1290E+03    36.9577   4.0000   108.1983
104      0.0000     0.0000E+00    0.0000E+00    6.610000E+06  0.02000  2.387E-02    0   0.9090   age061_m62            0.0000     1.8714E+03    34.5474   4.0000   105.9861
105      0.0000     0.0000E+00    0.0000E+00    8.710000E+06  0.02000  1.102E-02    0   0.8861   age067_m62            0.0000     1.7661E+03    34.5679   4.0000    99.5918
106      0.0000     0.0000E+00    0.0000E+00    1.000000E+07  0.02000  1.011E-02    0   0.8751   age070_m62            0.0000     1.5265E+03    31.6119   4.0000   101.6900
107      0.0000     0.0000E+00    0.0000E+00    1.445000E+07  0.02000  7.331E-03    0   0.8472   age078_m62            0.0000     1.3501E+03    29.4372   4.0000   102.8114
108      0.0000     0.0000E+00    0.0000E+00    2.512000E+07  0.02000  4.206E-03    0   0.8099   age090_m62            0.0000     1.1923E+03    28.4813   4.0000   101.4264
109      0.0000     0.0000E+00    0.0000E+00    4.000000E+07  0.02000  3.373E-03    0   0.7799   age104_m62            0.0000     8.0711E+02    20.0725   4.0000   106.3175
110      0.0000     0.0000E+00    0.0000E+00    5.500000E+07  0.02000  2.747E-03    0   0.7595   age110_m62            0.0000     7.8022E+02    17.4970   4.0000   108.0861
111      0.0000     0.0000E+00    0.0000E+00    1.015200E+08  0.02000  1.878E-03    0   0.7221   age116_m62            0.0000     8.2601E+02    17.9716   4.0000   109.7030
112      0.0000     0.0000E+00    0.0000E+00    1.609000E+08  0.02000  1.378E-03    0   0.6978   age120_m62            0.0000     8.5705E+02    19.5008   4.0000   109.1426
113      0.0000     0.0000E+00    0.0000E+00    2.861200E+08  0.02000  8.869E-04    0   0.6700   age125_m62            0.0000     9.5784E+02    21.3821   3.7369   110.7654
114      0.0000     0.0000E+00    0.0000E+00    5.088000E+08  0.02000  4.834E-04    0   0.6430   age130_m62            0.0000     7.5949E+02    18.3324   3.1917   114.5701
115      0.0000     0.0000E+00    0.0000E+00    9.047900E+08  0.02000  2.312E-04    0   0.6152   age135_m62            0.0000     3.7930E+02    12.5043   2.5396   114.5043
116      0.0000     0.0000E+00    0.0000E+00    1.278050E+09  0.02000  1.387E-04    0   0.5927   age138_m62            0.0000     1.7976E+02     8.3318   2.1404   110.4765
117      0.0023     2.5633E-04    2.9700E-04    1.434000E+09  0.02000  1.168E-04    0   0.5865   age139_m62            0.0000     1.4720E+02     7.4174   2.1020   109.1086
118      0.0000     0.0000E+00    0.0000E+00    2.500000E+09  0.02000  5.505E-05    0   0.5610   age150_m62            0.0000     4.7395E+01     4.8831   1.6704   106.7705
119      0.0000     0.0000E+00    0.0000E+00    4.250000E+09  0.02000  3.070E-05    0   0.5407   age158_m62            0.0000     1.9509E+01     4.6355   1.3022   107.2920
120      0.0000     0.0000E+00    0.0000E+00    6.250000E+09  0.02000  2.104E-05    0   0.5277   age166_m62            0.0000     1.9744E+01     5.2735   1.1396   108.0119
121     10.7767     7.8217E+00    8.0704E+00    7.500000E+09  0.02000  1.770E-05    0   0.5223   age171_m62            0.0000     2.4849E+01     5.8404   1.0332   108.5227
122     49.3215     4.8852E+01    4.9421E+01    1.000000E+10  0.02000  1.297E-05    0   0.5121   age181_m62            0.0000     4.2146E+01     7.1053   0.8381   109.3212
123      2.9011     3.8458E+00    3.8344E+00    1.300000E+10  0.02000  9.691E-06    0   0.5047   age193_m62            0.0000     6.0570E+01     7.9851   0.7345   109.8534
124      3.0219     4.6437E+00    4.5859E+00    1.500000E+10  0.02000  8.360E-06    0   0.4999   age201_m62            0.0000     7.8122E+01     8.7341   0.6411   110.3055
125     16.4012     3.0487E+01    2.9789E+01    1.800000E+10  0.02000  6.911E-06    0   0.4946   age213_m62            0.0000     1.0215E+02     9.6646   0.5352   110.8825
126      0.0000     0.0000E+00    0.0000E+00    1.000000E+06  0.05000  2.651E-02    0   0.9998   age020_m72            0.0000     4.0362E+03    51.7833   4.0000   101.6318
127      0.0000     0.0000E+00    0.0000E+00    3.160000E+06  0.05000  4.817E-02    0   0.9577   age045_m72            0.0000     3.1312E+03    45.9826   4.0000   105.9397
128      0.0000     0.0000E+00    0.0000E+00    5.010000E+06  0.05000  3.101E-02    0   0.9147   age055_m72            0.0000     2.3257E+03    39.5119   4.0000   107.1035
129      0.0000     0.0000E+00    0.0000E+00    6.610000E+06  0.05000  1.472E-02    0   0.8877   age061_m72            0.0000     1.9008E+03    35.7379   4.0000   102.7932
130      0.0000     0.0000E+00    0.0000E+00    8.710000E+06  0.05000  1.050E-02    0   0.8638   age067_m72            0.0000     2.3851E+03    40.1129   4.0000   105.7153
131      0.0000     0.0000E+00    0.0000E+00    1.000000E+07  0.05000  8.954E-03    0   0.8524   age070_m72            0.0000     2.7250E+03    43.1344   4.0000   107.3062
132      0.0000     0.0000E+00    0.0000E+00    1.445000E+07  0.05000  6.392E-03    0   0.8262   age078_m72            0.0000     2.4940E+03    41.3149   4.0000   108.2003
133      0.0000     0.0000E+00    0.0000E+00    2.512000E+07  0.05000  4.207E-03    0   0.7902   age090_m72            0.0000     1.6033E+03    32.1334   4.0000   110.0266
134      0.0000     0.0000E+00    0.0000E+00    4.000000E+07  0.05000  3.198E-03    0   0.7618   age104_m72            0.0000     9.3065E+02    18.8528   4.0000   111.2702
135      0.0000     0.0000E+00    0.0000E+00    5.500000E+07  0.05000  2.593E-03    0   0.7432   age110_m72            0.0000     9.2510E+02    18.3072   4.0000   111.7498
136      0.0000     0.0000E+00    0.0000E+00    1.015200E+08  0.05000  1.716E-03    0   0.7092   age116_m72            0.0000     9.1548E+02    18.7019   4.0000   111.1984
137      0.0000     0.0000E+00    0.0000E+00    1.609000E+08  0.05000  1.218E-03    0   0.6876   age120_m72            0.0000     9.0376E+02    20.1189   4.0000   108.7364
138      0.0000     0.0000E+00    0.0000E+00    2.861200E+08  0.05000  7.047E-04    0   0.6618   age125_m72            0.0000     8.7194E+02    19.9897   3.4760   111.5461
139      0.0000     0.0000E+00    0.0000E+00    5.088000E+08  0.05000  3.590E-04    0   0.6356   age130_m72            0.0000     5.9801E+02    16.0829   2.8005   115.4993
140      0.0000     0.0000E+00    0.0000E+00    9.047900E+08  0.05000  1.484E-04    0   0.6088   age135_m72            0.0000     1.6704E+02     8.4833   1.9837   110.3607
141      0.0000     0.0000E+00    0.0000E+00    1.278050E+09  0.05000  9.435E-05    0   0.5924   age138_m72            0.0000     6.0894E+01     6.1059   1.4917   108.2857
142      0.0000     0.0000E+00    0.0000E+00    1.434000E+09  0.05000  7.827E-05    0   0.5847   age139_m72            0.0000     4.7270E+01     5.5290   1.5106   107.7384
143      0.0000     0.0000E+00    0.0000E+00    2.500000E+09  0.05000  3.759E-05    0   0.5583   age150_m72            0.0000     2.1518E+01     5.2491   1.1295   107.6003
144      0.0000     0.0000E+00    0.0000E+00    4.250000E+09  0.05000  1.842E-05    0   0.5374   age158_m72            0.0000     4.9063E+01     6.9458   0.7882   107.1878
145      0.0081     8.6437E-03    8.9510E-03    6.250000E+09  0.05000  1.207E-05    0   0.5242   age166_m72            0.0000     8.9504E+01     8.6478   0.4836   107.3763
146      0.0000     0.0000E+00    0.0000E+00    7.500000E+09  0.05000  9.993E-06    0   0.5183   age171_m72            0.0000     9.7789E+01     8.8671   0.4291   107.4015
147      0.0000     0.0000E+00    0.0000E+00    1.000000E+10  0.05000  7.291E-06    0   0.5081   age181_m72            0.0000     1.3547E+02    10.0836   0.2493   107.8196
148      0.0000     0.0000E+00    0.0000E+00    1.300000E+10  0.05000  5.316E-06    0   0.5018   age193_m72            0.0000     2.0210E+02    11.8894  -0.0227   108.6530
149      0.0009     2.6085E-03    2.5621E-03    1.500000E+10  0.05000  4.497E-06    0   0.4972   age201_m72            0.0000     2.3869E+02    12.7989  -0.1398   109.4278
150      0.0042     1.4420E-02    1.4027E-02    1.800000E+10  0.05000  3.739E-06    0   0.4924   age213_m72            0.0000     2.8372E+02    13.9172  -0.3076   110.3834


## Synthesis Results - Average & Chains ##

# j      x_j: min, <> & last-chain-values for 1 ...  7 chains
  1      2.8458      2.5494      2.6216      2.8884      2.7479      2.6129      2.6649      2.6128      2.6750
  2      0.0000      0.0493      0.0000      0.0393      0.0000      0.0000      0.1015      0.0000      0.0000
  3      8.0044      6.7733      7.0055      6.8248      7.4228      7.0278      7.4854      7.0025      7.0424
  4      0.0000      0.0588      0.2073      0.0487      0.0000      0.0000      0.0000      0.1678      0.0000
  5      0.0000      0.0641      0.0000      0.0000      0.0000      0.0000      0.0000      0.0542      0.0000
  6      0.0000      0.0528      0.0000      0.2929      0.0123      0.0810      0.0000      0.0000      0.0000
  7      0.1712      0.1029      0.0004      0.0000      0.0440      0.0000      0.0000      0.5281      0.4879
  8      0.0000      0.0278      0.0879      0.0000      0.0000      0.2213      0.0000      0.0000      0.0591
  9      0.9365      0.0213      0.1638      0.0000      0.0000      0.0886      0.0000      0.2439      0.0000
 10      0.0000      0.0210      0.0000      0.0000      0.0000      0.0211      0.0000      0.0000      0.1657
 11      0.0000      0.0136      0.0000      0.0000      0.0000      0.0000      0.0000      0.1580      0.0000
 12      0.0000      0.0143      0.0000      0.0000      0.0000      0.0000      0.0000      0.0000      0.0000
 13      0.0000      0.0118      0.0000      0.0000      0.0000      0.0000      0.1102      0.0000      0.0733
 14      0.0000      0.0146      0.0252      0.0000      0.0000      0.0000      0.2056      0.0000      0.0000
 15      0.0000      0.0114      0.0000      0.0000      0.0000      0.0000      0.0000      0.0000      0.0000
 16      0.0000      0.0130      0.0000      0.0915      0.0000      0.0395      0.1226      0.0000      0.0000
 17      0.0000      0.0171      0.0000      0.0000      0.0000      0.1548      0.0706      0.0000      0.0000
 18      0.0000      0.0219      0.0000      0.0000      0.0000      0.0000      0.0000      0.0000      0.0421
 19      0.0000      0.0303      0.0000      0.0000      0.0000      0.2594      0.0002      0.0000      0.0181
 20      0.0000      0.0407      0.0000      0.0000      0.0000      0.0000      0.1242      0.0000      0.0000
 21      0.0000      0.0409      0.0000      0.0000      0.0000      0.0000      0.0000      0.0000      0.0330
 22      0.0000      0.0594      0.0000      0.0000      0.0000      0.0229      0.0000      0.0000      0.1896
 23      0.0000      0.0450      0.0000      0.0000      0.2115      0.0000      0.1714      0.0000      0.3474
 24      0.0000      0.0483      0.3370      0.0000      0.0319      0.0000      0.0000      0.0000      0.0000
 25      0.9209      0.0556      0.0000      0.0000      0.0000      0.0000      0.0000      0.2122      0.0000
 26      0.0000      0.1148      0.1200      0.2988      0.0000      0.0000      0.1464      0.0000      0.3284
 27      0.0000      0.0343      0.0000      0.1851      0.0000      0.0000      0.0000      0.0000      0.0000
 28      0.0000      0.0325      0.0000      0.0000      0.0806      0.0000      0.0000      0.0000      0.0000
 29      0.0000      0.0261      0.0000      0.0000      0.0000      0.0000      0.0000      0.0000      0.1726
 30      0.0000      0.0266      0.0000      0.0000      0.0000      0.0144      0.1686      0.0686      0.0000
 31      0.0000      0.0187      0.0000      0.0000      0.0000      0.0000      0.0000      0.0000      0.0000
 32      0.0000      0.0254      0.0000      0.0000      0.0000      0.0000      0.0000      0.0000      0.0000
 33      0.0000      0.0257      0.0000      0.0338      0.0000      0.2473      0.0000      0.0000      0.0000
 34      0.0000      0.0371      0.0000      0.2451      0.0000      0.2171      0.0000      0.0000      0.0000
 35      0.0000      0.0276      0.0000      0.0000      0.0000      0.0000      0.0000      0.0000      0.0000
 36      0.0000      0.0202      0.0000      0.1082      0.0000      0.0000      0.0000      0.0000      0.1548
 37      0.0000      0.0109      0.0000      0.0000      0.0000      0.0000      0.0000      0.0000      0.0000
 38      0.0000      0.0145      0.0000      0.0446      0.0000      0.0000      0.0000      0.0000      0.0000
 39      0.0000      0.0127      0.0000      0.0338      0.0000      0.0000      0.0000      0.0562      0.0000
 40      0.0000      0.0175      0.0000      0.0000      0.0000      0.0000      0.2628      0.0000      0.0000
 41      0.0000      0.0220      0.0154      0.1068      0.0000      0.0551      0.0000      0.0000      0.0000
 42      0.0000      0.0162      0.1025      0.0000      0.0000      0.0000      0.0000      0.0000      0.0000
 43      0.0000      0.0300      0.1796      0.0578      0.0677      0.0000      0.0000      0.0000      0.0000
 44      0.0000      0.0410      0.0000      0.0935      0.0000      0.0000      0.0000      0.0000      0.1364
 45      0.0000      0.0742      0.0000      0.0000      0.0482      0.0000      0.0000      0.1134      0.0000
 46      0.6223      0.0937      0.6391      0.3972      0.3173      0.0000      0.1123      0.1913      0.0000
 47      3.9141      4.0798      3.8318      4.2372      4.0627      4.2485      4.0952      3.9919      4.3078
 48      0.0000      0.0620      0.0237      0.0123      0.0418      0.2358      0.3846      0.0000      0.0322
 49      0.0000      0.0490      0.0000      0.0000      0.2680      0.0000      0.0000      0.0000      0.1240
 50      0.3425      0.0549      0.0000      0.0000      0.0000      0.0000      0.0000      0.5172      0.0000
 51      0.0000      0.0803      0.2737      0.0000      0.0000      0.2672      0.1996      0.0000      0.0000
 52      0.0000      0.0340      0.0000      0.0000      0.0177      0.0000      0.0000      0.0000      0.0000
 53      0.0000      0.0308      0.0000      0.0000      0.4036      0.0000      0.0000      0.0000      0.0512
 54      0.0000      0.0383      0.0533      0.2121      0.2835      0.0000      0.0000      0.0000      0.0000
 55      0.0000      0.0476      0.4125      0.1980      0.1712      0.0000      0.0000      0.1552      0.2608
 56      0.0000      0.0295      0.1385      0.0000      0.0000      0.0000      0.1176      0.0000      0.0000
 57      0.2887      0.0372      0.0000      0.0367      0.0925      0.0101      0.0478      0.3041      0.0000
 58      0.0000      0.0293      0.0000      0.1389      0.0029      0.0000      0.0000      0.0448      0.0000
 59      0.0000      0.0320      0.0000      0.0000      0.0000      0.0000      0.0000      0.0000      0.0000
 60      0.0000      0.0185      0.1528      0.0000      0.0000      0.0000      0.0000      0.0000      0.0000
 61      0.0000      0.0153      0.0000      0.0000      0.0000      0.0281      0.0000      0.0000      0.0544
 62      0.0000      0.0132      0.0000      0.0000      0.0000      0.0000      0.0000      0.0000      0.0000
 63      0.0000      0.0094      0.0000      0.0000      0.0000      0.0000      0.0000      0.0584      0.0000
 64      0.0000      0.0140      0.0000      0.0000      0.0000      0.0733      0.0000      0.0000      0.0000
 65      0.0000      0.0201      0.0000      0.0000      0.0000      0.0000      0.0000      0.0000      0.0000
 66      0.0000      0.0309      0.0000      0.0000      0.0789      0.0000      0.0000      0.0000      0.0000
 67      0.4611      0.0242      0.0000      0.0110      0.1181      0.0000      0.0000      0.2189      0.0569
 68      0.0000      0.0412      0.1915      0.1052      0.0000      0.0235      0.0183      0.0000      0.1111
 69      0.0000      0.0713      0.0000      0.2551      0.0000      0.0000      0.0000      0.0000      0.0000
 70      0.0000      0.0918      0.0000      0.2914      0.0737      0.0263      0.0000      0.0000      0.0000
 71      0.0000      0.0939      0.1313      0.0000      0.4247      0.5111      0.0000      0.0000      0.0000
 72      0.0000      0.1287      0.2044      0.0000      0.0000      0.0000      0.0000      0.0000      0.0000
 73      0.0000      0.1163      0.0000      0.0012      0.0000      0.0807      0.0000      0.0000      0.1475
 74      0.0000      0.1133      0.0000      0.0000      0.0000      0.0000      0.0640      0.1772      0.0000
 75      0.0000      0.1012      0.0000      0.0000      0.0000      0.0814      0.0421      0.0000      0.0000
 76      0.0000      0.0332      0.0000      0.0000      0.0000      0.0000      0.0000      0.0000      0.0000
 77      0.0000      0.0394      0.0000      0.0000      0.0214      0.0000      0.0903      0.0420      0.0000
 78      0.0000      0.0227      0.0000      0.0154      0.0000      0.0000      0.0000      0.1691      0.1266
 79      0.0000      0.0319      0.0000      0.0211      0.0000      0.0000      0.0000      0.0000      0.0000
 80      0.0000      0.0350      0.0101      0.0280      0.0000      0.0000      0.0000      0.0000      0.0000
 81      0.0000      0.0324      0.0000      0.0000      0.0000      0.0000      0.0000      0.0000      0.0000
 82      0.0000      0.0301      0.0000      0.0000      0.0000      0.0000      0.0000      0.1158      0.0000
 83      0.0000      0.0317      0.0000      0.0000      0.4000      0.1084      0.2096      0.0000      0.0000
 84      0.0000      0.0160      0.0000      0.0000      0.0000      0.0000      0.0539      0.0000      0.0000
 85      0.0000      0.0110      0.0000      0.0000      0.0000      0.0000      0.0000      0.0000      0.0000
 86      0.0008      0.0159      0.0000      0.0000      0.0000      0.0000      0.0000      0.3617      0.0000
 87      0.0000      0.0102      0.0000      0.0000      0.0000      0.0000      0.0000      0.0000      0.0000
 88      0.0000      0.0080      0.0000      0.0000      0.0000      0.0000      0.0000      0.0000      0.0000
 89      0.0000      0.0125      0.0000      0.0000      0.0000      0.0000      0.0000      0.0000      0.0000
 90      0.0000      0.0186      0.0000      0.0000      0.0000      0.0000      0.0866      0.0000      0.0000
 91      0.0000      0.0354      0.0000      0.0000      0.0000      0.0247      0.0000      0.0000      0.0000
 92      0.0000      0.0283      0.0000      0.0000      0.0000      0.0399      0.0000      0.0000      0.0000
 93      0.0000      0.0685      0.0000      0.0000      0.0000      0.0000      0.0000      0.0000      0.0000
 94      0.4744      0.1152      0.0000      0.0694      0.0000      0.0000      0.0000      0.2386      0.0000
 95      0.0000      0.2185      0.2223      0.4141      0.0000      0.3256      0.0290      0.0000      0.1814
 96      0.0000      0.2447      0.3607      0.5132      0.0000      0.0000      0.0000      0.0000      0.4543
 97      2.8517      0.3500      0.7420      0.3827      0.2477      0.0000      0.1873      0.3588      0.1986
 98      0.1047      1.7571      1.4162      0.9676      1.2631      2.6359      2.2418      1.5926      1.0997
 99      0.0026      0.3874      0.1208      0.2098      0.1176      0.0000      0.0786      0.8746      0.2472
100      0.0007      0.3024      0.0000      0.3209      0.1841      0.4218      0.3534      0.2136      0.6844
101      0.0000      0.1039      0.0000      0.0000      0.0000      0.2904      0.0000      0.0092      0.0579
102      0.0000      0.0330      0.0000      0.0000      0.0000      0.0000      0.0000      0.0000      0.0000
103      0.0000      0.0280      0.0000      0.0000      0.0000      0.1685      0.0189      0.1549      0.0000
104      0.0000      0.0246      0.0000      0.0659      0.0000      0.0000      0.1835      0.0000      0.0000
105      0.0000      0.0609      0.0447      0.0000      0.0667      0.0190      0.0226      0.0000      0.0000
106      0.0000      0.0581      0.1361      0.0000      0.0000      0.2226      0.0189      0.0000      0.0000
107      0.0000      0.0298      0.1787      0.0000      0.0000      0.0380      0.0000      0.0000      0.0000
108      0.0000      0.0235      0.0000      0.0000      0.0845      0.0000      0.0000      0.0000      0.0000
109      0.0000      0.0228      0.0000      0.0000      0.2934      0.0000      0.0000      0.0000      0.0000
110      0.0000      0.0135      0.0000      0.0000      0.0000      0.0000      0.0000      0.0000      0.0696
111      0.0000      0.0146      0.0000      0.0000      0.0000      0.0000      0.0000      0.0208      0.0000
112      0.0000      0.0122      0.0000      0.0000      0.0000      0.0000      0.0000      0.0000      0.0000
113      0.0000      0.0090      0.0000      0.0000      0.0000      0.0000      0.1036      0.0000      0.0000
114      0.0000      0.0109      0.0000      0.0000      0.0000      0.0277      0.0000      0.0000      0.0000
115      0.0000      0.0216      0.0029      0.0000      0.2027      0.0000      0.0466      0.0000      0.0000
116      0.0000      0.0317      0.0000      0.0000      0.0160      0.1428      0.0000      0.0593      0.0011
117      0.0023      0.0335      0.1390      0.0000      0.0000      0.0000      0.0000      0.2397      0.0000
118      0.0000      0.0672      0.0000      0.0000      0.0000      0.0000      0.0000      0.0474      0.0000
119      0.0000      0.1962      0.0000      0.0000      0.0017      0.0000      0.2745      0.0000      0.0000
120      0.0000      0.2413      0.0000      0.0000      0.0000      0.0000      0.0000      0.1597      0.6827
121     10.7767     17.5609     18.0284     16.9651     16.9436     17.7583     15.9178     14.5218     17.2128
122     49.3215     48.6552     49.6014     50.5850     51.0405     48.0952     49.3693     49.5527     49.1354
123      2.9011      2.1388      2.4669      2.2519      1.6792      1.1248      2.3362      2.9240      2.4378
124      3.0219      0.8526      0.8237      1.4724      0.8729      0.9907      1.6483      1.1791      2.2100
125     16.4012     11.6251     12.1186     11.9226     13.2635     14.5226     12.8020     13.8854     11.5185
126      0.0000      0.0306      0.0000      0.0000      0.0000      0.0000      0.1073      0.0000      0.0000
127      0.0000      0.0559      0.0000      0.0000      0.0000      0.0000      0.0000      0.0000      0.0000
128      0.0000      0.0275      0.0000      0.0000      0.0000      0.1315      0.0000      0.0000      0.0000
129      0.0000      0.0359      0.0000      0.0000      0.0000      0.0000      0.0000      0.0000      0.0000
130      0.0000      0.0288      0.0365      0.0000      0.0000      0.0000      0.0000      0.0000      0.0000
131      0.0000      0.0284      0.0000      0.0000      0.0000      0.0000      0.0000      0.0000      0.0000
132      0.0000      0.0535      0.0000      0.0000      0.0000      0.0000      0.2047      0.0000      0.0000
133      0.0000      0.0399      0.0000      0.0000      0.0000      0.0000      0.0000      0.0000      0.0000
134      0.0000      0.0117      0.0000      0.0000      0.0000      0.0000      0.0000      0.0000      0.0000
135      0.0000      0.0116      0.0000      0.0000      0.0000      0.0000      0.0000      0.0000      0.0000
136      0.0000      0.0113      0.0000      0.0000      0.0000      0.0000      0.0000      0.0000      0.0000
137      0.0000      0.0130      0.0000      0.0000      0.0000      0.0000      0.0000      0.0275      0.1530
138      0.0000      0.0102      0.0000      0.0000      0.0000      0.0287      0.0000      0.0000      0.0000
139      0.0000      0.0116      0.0000      0.0000      0.0000      0.0000      0.0000      0.0000      0.0000
140      0.0000      0.0336      0.0000      0.0160      0.0000      0.0000      0.0000      0.0000      0.0000
141      0.0000      0.0503      0.0000      0.0000      0.0000      0.0000      0.1597      0.0000      0.0000
142      0.0000      0.0570      0.0000      0.0000      0.0000      0.0000      0.0000      0.0000      0.0000
143      0.0000      0.1155      0.0498      0.0303      0.0000      0.0000      0.0000      0.0000      0.0000
144      0.0000      0.1560      0.0000      0.3369      0.0000      0.0000      0.0000      0.0000      0.1424
145      0.0081      0.2219      0.4315      0.0007      0.1854      0.0000      0.1461      0.1988      0.0000
146      0.0000      0.2648      0.2181      0.0395      0.0000      0.1639      0.1782      0.0659      0.0000
147      0.0000      0.3096      0.4253      0.4710      0.0000      0.0309      0.0424      0.0000      0.0000
148      0.0000      0.1495      0.0000      0.0000      0.1750      0.1358      0.3142      0.0000      0.0053
149      0.0009      0.2029      0.0227      0.0000      0.0000      0.0000      0.1165      0.2543      0.2561
150      0.0042      0.4726      0.0000      0.0976      0.4231      0.4007      0.4447      0.3623      0.4860

# j      m_j: min, <> & last-chain-values for 1 ...  7 chains
  1  8.8508E-03  8.2592E-03  8.5598E-03  9.3988E-03  8.8142E-03  8.3242E-03  8.4818E-03  8.2492E-03  8.5975E-03
  2  0.0000E+00  2.7390E-05  0.0000E+00  2.1931E-05  0.0000E+00  0.0000E+00  5.5383E-05  0.0000E+00  0.0000E+00
  3  1.0075E-02  8.8805E-03  9.2571E-03  8.9874E-03  9.6356E-03  9.0608E-03  9.6417E-03  8.9472E-03  9.1603E-03
  4  0.0000E+00  1.4502E-04  5.1477E-04  1.2057E-04  0.0000E+00  0.0000E+00  0.0000E+00  4.0302E-04  0.0000E+00
  5  0.0000E+00  1.9913E-04  0.0000E+00  0.0000E+00  0.0000E+00  0.0000E+00  0.0000E+00  1.6389E-04  0.0000E+00
  6  0.0000E+00  1.9498E-04  0.0000E+00  1.0861E-03  4.4804E-05  2.9404E-04  0.0000E+00  0.0000E+00  0.0000E+00
  7  7.6554E-04  4.7948E-04  2.1106E-06  0.0000E+00  2.0275E-04  0.0000E+00  0.0000E+00  2.3977E-03  2.2549E-03
  8  0.0000E+00  1.4647E-04  4.6653E-04  0.0000E+00  0.0000E+00  1.1462E-03  0.0000E+00  0.0000E+00  3.0885E-04
  9  5.0931E-03  1.2089E-04  9.3525E-04  0.0000E+00  0.0000E+00  4.9358E-04  0.0000E+00  1.3466E-03  0.0000E+00
 10  0.0000E+00  1.3664E-04  0.0000E+00  0.0000E+00  0.0000E+00  1.3475E-04  0.0000E+00  0.0000E+00  1.0677E-03
 11  0.0000E+00  1.0589E-04  0.0000E+00  0.0000E+00  0.0000E+00  0.0000E+00  0.0000E+00  1.1950E-03  0.0000E+00
 12  0.0000E+00  1.9414E-04  0.0000E+00  0.0000E+00  0.0000E+00  0.0000E+00  0.0000E+00  0.0000E+00  0.0000E+00
 13  0.0000E+00  1.8601E-04  0.0000E+00  0.0000E+00  0.0000E+00  0.0000E+00  1.7067E-03  0.0000E+00  1.1459E-03
 14  0.0000E+00  3.2647E-04  5.6828E-04  0.0000E+00  0.0000E+00  0.0000E+00  4.5220E-03  0.0000E+00  0.0000E+00
 15  0.0000E+00  3.8433E-04  0.0000E+00  0.0000E+00  0.0000E+00  0.0000E+00  0.0000E+00  0.0000E+00  0.0000E+00
 16  0.0000E+00  6.3476E-04  0.0000E+00  4.4991E-03  0.0000E+00  1.9001E-03  5.8959E-03  0.0000E+00  0.0000E+00
 17  0.0000E+00  9.2955E-04  0.0000E+00  0.0000E+00  0.0000E+00  8.2721E-03  3.7675E-03  0.0000E+00  0.0000E+00
 18  0.0000E+00  1.9412E-03  0.0000E+00  0.0000E+00  0.0000E+00  0.0000E+00  0.0000E+00  0.0000E+00  3.6999E-03
 19  0.0000E+00  4.0597E-03  0.0000E+00  0.0000E+00  0.0000E+00  3.4224E-02  2.5351E-05  0.0000E+00  2.4099E-03
 20  0.0000E+00  7.8036E-03  0.0000E+00  0.0000E+00  0.0000E+00  0.0000E+00  2.3415E-02  0.0000E+00  0.0000E+00
 21  0.0000E+00  9.0694E-03  0.0000E+00  0.0000E+00  0.0000E+00  0.0000E+00  0.0000E+00  0.0000E+00  7.2566E-03
 22  0.0000E+00  1.7006E-02  0.0000E+00  0.0000E+00  0.0000E+00  6.4549E-03  0.0000E+00  0.0000E+00  5.3871E-02
 23  0.0000E+00  1.6321E-02  0.0000E+00  0.0000E+00  7.6012E-02  0.0000E+00  6.1124E-02  0.0000E+00  1.2511E-01
 24  0.0000E+00  2.0045E-02  1.4100E-01  0.0000E+00  1.3103E-02  0.0000E+00  0.0000E+00  0.0000E+00  0.0000E+00
 25  4.4087E-01  2.7731E-02  0.0000E+00  0.0000E+00  0.0000E+00  0.0000E+00  0.0000E+00  1.0314E-01  0.0000E+00
 26  0.0000E+00  3.5869E-04  3.7789E-04  9.3816E-04  0.0000E+00  0.0000E+00  4.4944E-04  0.0000E+00  1.0184E-03
 27  0.0000E+00  2.2853E-05  0.0000E+00  1.2371E-04  0.0000E+00  0.0000E+00  0.0000E+00  0.0000E+00  0.0000E+00
 28  0.0000E+00  4.2302E-05  0.0000E+00  0.0000E+00  1.0389E-04  0.0000E+00  0.0000E+00  0.0000E+00  0.0000E+00
 29  0.0000E+00  5.2923E-05  0.0000E+00  0.0000E+00  0.0000E+00  0.0000E+00  0.0000E+00  0.0000E+00  3.4743E-04
 30  0.0000E+00  6.7000E-05  0.0000E+00  0.0000E+00  0.0000E+00  3.5615E-05  4.1773E-04  1.6865E-04  0.0000E+00
 31  0.0000E+00  5.4475E-05  0.0000E+00  0.0000E+00  0.0000E+00  0.0000E+00  0.0000E+00  0.0000E+00  0.0000E+00
 32  0.0000E+00  8.1890E-05  0.0000E+00  0.0000E+00  0.0000E+00  0.0000E+00  0.0000E+00  0.0000E+00  0.0000E+00
 33  0.0000E+00  1.1780E-04  0.0000E+00  1.5572E-04  0.0000E+00  1.1151E-03  0.0000E+00  0.0000E+00  0.0000E+00
 34  0.0000E+00  2.0643E-04  0.0000E+00  1.3712E-03  0.0000E+00  1.1893E-03  0.0000E+00  0.0000E+00  0.0000E+00
 35  0.0000E+00  1.8594E-04  0.0000E+00  0.0000E+00  0.0000E+00  0.0000E+00  0.0000E+00  0.0000E+00  0.0000E+00
 36  0.0000E+00  1.7416E-04  0.0000E+00  9.3771E-04  0.0000E+00  0.0000E+00  0.0000E+00  0.0000E+00  1.3258E-03
 37  0.0000E+00  1.1639E-04  0.0000E+00  0.0000E+00  0.0000E+00  0.0000E+00  0.0000E+00  0.0000E+00  0.0000E+00
 38  0.0000E+00  2.1612E-04  0.0000E+00  6.6841E-04  0.0000E+00  0.0000E+00  0.0000E+00  0.0000E+00  0.0000E+00
 39  0.0000E+00  2.8262E-04  0.0000E+00  7.5600E-04  0.0000E+00  0.0000E+00  0.0000E+00  1.2208E-03  0.0000E+00
 40  0.0000E+00  6.8781E-04  0.0000E+00  0.0000E+00  0.0000E+00  0.0000E+00  1.0152E-02  0.0000E+00  0.0000E+00
 41  0.0000E+00  1.1600E-03  8.1900E-04  5.6524E-03  0.0000E+00  2.8534E-03  0.0000E+00  0.0000E+00  0.0000E+00
 42  0.0000E+00  9.5281E-04  6.0752E-03  0.0000E+00  0.0000E+00  0.0000E+00  0.0000E+00  0.0000E+00  0.0000E+00
 43  0.0000E+00  2.8678E-03  1.7323E-02  5.5524E-03  6.4122E-03  0.0000E+00  0.0000E+00  0.0000E+00  0.0000E+00
 44  0.0000E+00  6.1998E-03  0.0000E+00  1.4211E-02  0.0000E+00  0.0000E+00  0.0000E+00  0.0000E+00  2.0479E-02
 45  0.0000E+00  1.5651E-02  0.0000E+00  0.0000E+00  1.0074E-02  0.0000E+00  0.0000E+00  2.3310E-02  0.0000E+00
 46  1.5011E-01  2.3554E-02  1.6185E-01  1.0023E-01  7.8923E-02  0.0000E+00  2.7712E-02  4.6853E-02  0.0000E+00
 47  1.2374E+00  1.3435E+00  1.2718E+00  1.4015E+00  1.3247E+00  1.3758E+00  1.3249E+00  1.2811E+00  1.4074E+00
 48  0.0000E+00  2.4306E-02  9.3520E-03  4.8405E-03  1.6243E-02  9.0920E-02  1.4817E-01  0.0000E+00  1.2529E-02
 49  0.0000E+00  2.1515E-02  0.0000E+00  0.0000E+00  1.1639E-01  0.0000E+00  0.0000E+00  0.0000E+00  5.3967E-02
 50  1.6966E-01  2.8332E-02  0.0000E+00  0.0000E+00  0.0000E+00  0.0000E+00  0.0000E+00  2.6008E-01  0.0000E+00
 51  0.0000E+00  1.9067E-04  6.5455E-04  0.0000E+00  0.0000E+00  6.2358E-04  4.6532E-04  0.0000E+00  0.0000E+00
 52  0.0000E+00  2.2059E-05  0.0000E+00  0.0000E+00  1.1390E-05  0.0000E+00  0.0000E+00  0.0000E+00  0.0000E+00
 53  0.0000E+00  3.0525E-05  0.0000E+00  0.0000E+00  3.9549E-04  0.0000E+00  0.0000E+00  0.0000E+00  5.0295E-05
 54  0.0000E+00  3.6128E-05  5.0668E-05  2.0100E-04  2.6488E-04  0.0000E+00  0.0000E+00  0.0000E+00  0.0000E+00
 55  0.0000E+00  6.6228E-05  5.7876E-04  2.7686E-04  2.3594E-04  0.0000E+00  0.0000E+00  2.1048E-04  3.6018E-04
 56  0.0000E+00  5.4301E-05  2.5720E-04  0.0000E+00  0.0000E+00  0.0000E+00  2.1299E-04  0.0000E+00  0.0000E+00
 57  8.1925E-04  1.0989E-04  0.0000E+00  1.0898E-04  2.7064E-04  2.9325E-05  1.3885E-04  8.7590E-04  0.0000E+00
 58  0.0000E+00  1.2489E-04  0.0000E+00  5.9449E-04  1.2369E-05  0.0000E+00  0.0000E+00  1.8610E-04  0.0000E+00
 59  0.0000E+00  1.8941E-04  0.0000E+00  0.0000E+00  0.0000E+00  0.0000E+00  0.0000E+00  0.0000E+00  0.0000E+00
 60  0.0000E+00  1.2226E-04  1.0153E-03  0.0000E+00  0.0000E+00  0.0000E+00  0.0000E+00  0.0000E+00  0.0000E+00
 61  0.0000E+00  1.2844E-04  0.0000E+00  0.0000E+00  0.0000E+00  2.3206E-04  0.0000E+00  0.0000E+00  4.5335E-04
 62  0.0000E+00  1.4106E-04  0.0000E+00  0.0000E+00  0.0000E+00  0.0000E+00  0.0000E+00  0.0000E+00  0.0000E+00
 63  0.0000E+00  1.5263E-04  0.0000E+00  0.0000E+00  0.0000E+00  0.0000E+00  0.0000E+00  9.2237E-04  0.0000E+00
 64  0.0000E+00  3.7263E-04  0.0000E+00  0.0000E+00  0.0000E+00  1.9208E-03  0.0000E+00  0.0000E+00  0.0000E+00
 65  0.0000E+00  9.0329E-04  0.0000E+00  0.0000E+00  0.0000E+00  0.0000E+00  0.0000E+00  0.0000E+00  0.0000E+00
 66  0.0000E+00  1.7821E-03  0.0000E+00  0.0000E+00  4.5051E-03  0.0000E+00  0.0000E+00  0.0000E+00  0.0000E+00
 67  3.5019E-02  1.9131E-03  0.0000E+00  8.7704E-04  9.2522E-03  0.0000E+00  0.0000E+00  1.6880E-02  4.4667E-03
 68  0.0000E+00  6.0560E-03  2.8383E-02  1.5539E-02  0.0000E+00  3.3991E-03  2.6486E-03  0.0000E+00  1.6210E-02
 69  0.0000E+00  1.8094E-02  0.0000E+00  6.5001E-02  0.0000E+00  0.0000E+00  0.0000E+00  0.0000E+00  0.0000E+00
 70  0.0000E+00  3.2421E-02  0.0000E+00  1.0333E-01  2.5752E-02  9.1226E-03  0.0000E+00  0.0000E+00  0.0000E+00
 71  0.0000E+00  3.9108E-02  5.5115E-02  0.0000E+00  1.7516E-01  2.0936E-01  0.0000E+00  0.0000E+00  0.0000E+00
 72  0.0000E+00  7.0567E-02  1.1294E-01  0.0000E+00  0.0000E+00  0.0000E+00  0.0000E+00  0.0000E+00  0.0000E+00
 73  0.0000E+00  8.0457E-02  0.0000E+00  8.3661E-04  0.0000E+00  5.4866E-02  0.0000E+00  0.0000E+00  1.0125E-01
 74  0.0000E+00  8.7441E-02  0.0000E+00  0.0000E+00  0.0000E+00  0.0000E+00  4.8554E-02  1.3325E-01  0.0000E+00
 75  0.0000E+00  8.9760E-02  0.0000E+00  0.0000E+00  0.0000E+00  7.1020E-02  3.6744E-02  0.0000E+00  0.0000E+00
 76  0.0000E+00  6.8298E-05  0.0000E+00  0.0000E+00  0.0000E+00  0.0000E+00  0.0000E+00  0.0000E+00  0.0000E+00
 77  0.0000E+00  3.2957E-05  0.0000E+00  0.0000E+00  1.7756E-05  0.0000E+00  7.4228E-05  3.4247E-05  0.0000E+00
 78  0.0000E+00  2.1264E-05  0.0000E+00  1.4492E-05  0.0000E+00  0.0000E+00  0.0000E+00  1.5440E-04  1.1767E-04
 79  0.0000E+00  3.5990E-05  0.0000E+00  2.3854E-05  0.0000E+00  0.0000E+00  0.0000E+00  0.0000E+00  0.0000E+00
 80  0.0000E+00  5.0913E-05  1.4772E-05  4.0814E-05  0.0000E+00  0.0000E+00  0.0000E+00  0.0000E+00  0.0000E+00
 81  0.0000E+00  6.2138E-05  0.0000E+00  0.0000E+00  0.0000E+00  0.0000E+00  0.0000E+00  0.0000E+00  0.0000E+00
 82  0.0000E+00  7.7869E-05  0.0000E+00  0.0000E+00  0.0000E+00  0.0000E+00  0.0000E+00  2.9194E-04  0.0000E+00
 83  0.0000E+00  1.2057E-04  0.0000E+00  0.0000E+00  1.5054E-03  4.0517E-04  7.8261E-04  0.0000E+00  0.0000E+00
 84  0.0000E+00  8.4169E-05  0.0000E+00  0.0000E+00  0.0000E+00  0.0000E+00  2.7867E-04  0.0000E+00  0.0000E+00
 85  0.0000E+00  7.0101E-05  0.0000E+00  0.0000E+00  0.0000E+00  0.0000E+00  0.0000E+00  0.0000E+00  0.0000E+00
 86  6.8247E-06  1.3752E-04  0.0000E+00  0.0000E+00  0.0000E+00  0.0000E+00  0.0000E+00  3.0519E-03  0.0000E+00
 87  0.0000E+00  1.1784E-04  0.0000E+00  0.0000E+00  0.0000E+00  0.0000E+00  0.0000E+00  0.0000E+00  0.0000E+00
 88  0.0000E+00  1.4022E-04  0.0000E+00  0.0000E+00  0.0000E+00  0.0000E+00  0.0000E+00  0.0000E+00  0.0000E+00
 89  0.0000E+00  3.6681E-04  0.0000E+00  0.0000E+00  0.0000E+00  0.0000E+00  0.0000E+00  0.0000E+00  0.0000E+00
 90  0.0000E+00  1.0094E-03  0.0000E+00  0.0000E+00  0.0000E+00  0.0000E+00  4.6061E-03  0.0000E+00  0.0000E+00
 91  0.0000E+00  2.4680E-03  0.0000E+00  0.0000E+00  0.0000E+00  1.6930E-03  0.0000E+00  0.0000E+00  0.0000E+00
 92  0.0000E+00  2.6358E-03  0.0000E+00  0.0000E+00  0.0000E+00  3.6460E-03  0.0000E+00  0.0000E+00  0.0000E+00
 93  0.0000E+00  1.2936E-02  0.0000E+00  0.0000E+00  0.0000E+00  0.0000E+00  0.0000E+00  0.0000E+00  0.0000E+00
 94  1.5430E-01  3.9017E-02  0.0000E+00  2.3608E-02  0.0000E+00  0.0000E+00  0.0000E+00  7.8769E-02  0.0000E+00
 95  0.0000E+00  9.9734E-02  1.0227E-01  1.8986E-01  0.0000E+00  1.4616E-01  1.2993E-02  0.0000E+00  8.2127E-02
 96  0.0000E+00  1.3475E-01  2.0020E-01  2.8384E-01  0.0000E+00  0.0000E+00  0.0000E+00  0.0000E+00  2.4822E-01
 97  1.9644E+00  2.5113E-01  5.3658E-01  2.7579E-01  1.7595E-01  0.0000E+00  1.3201E-01  2.5090E-01  1.4141E-01
 98  9.2447E-02  1.6168E+00  1.3133E+00  8.9426E-01  1.1508E+00  2.3851E+00  2.0266E+00  1.4281E+00  1.0039E+00
 99  2.5729E-03  4.0638E-01  1.2775E-01  2.2099E-01  1.2208E-01  0.0000E+00  8.1022E-02  8.9406E-01  2.5729E-01
100  8.2593E-04  3.6518E-01  0.0000E+00  3.8919E-01  2.2013E-01  5.0090E-01  4.1932E-01  2.5138E-01  8.1995E-01
101  0.0000E+00  1.3805E-04  0.0000E+00  0.0000E+00  0.0000E+00  3.7955E-04  0.0000E+00  1.1857E-05  7.6406E-05
102  0.0000E+00  2.2779E-05  0.0000E+00  0.0000E+00  0.0000E+00  0.0000E+00  0.0000E+00  0.0000E+00  0.0000E+00
103  0.0000E+00  2.1416E-05  0.0000E+00  0.0000E+00  0.0000E+00  1.2681E-04  1.4238E-05  1.1554E-04  0.0000E+00
104  0.0000E+00  2.4766E-05  0.0000E+00  6.6591E-05  0.0000E+00  0.0000E+00  1.8152E-04  0.0000E+00  0.0000E+00
105  0.0000E+00  1.2941E-04  9.5858E-05  0.0000E+00  1.4030E-04  3.9632E-05  4.7276E-05  0.0000E+00  0.0000E+00
106  0.0000E+00  1.3306E-04  3.1383E-04  0.0000E+00  0.0000E+00  5.0090E-04  4.2485E-05  0.0000E+00  0.0000E+00
107  0.0000E+00  9.1008E-05  5.5022E-04  0.0000E+00  0.0000E+00  1.1410E-04  0.0000E+00  0.0000E+00  0.0000E+00
108  0.0000E+00  1.1938E-04  0.0000E+00  0.0000E+00  4.2585E-04  0.0000E+00  0.0000E+00  0.0000E+00  0.0000E+00
109  0.0000E+00  1.3934E-04  0.0000E+00  0.0000E+00  1.7757E-03  0.0000E+00  0.0000E+00  0.0000E+00  0.0000E+00
110  0.0000E+00  9.8496E-05  0.0000E+00  0.0000E+00  0.0000E+00  0.0000E+00  0.0000E+00  0.0000E+00  5.0465E-04
111  0.0000E+00  1.4809E-04  0.0000E+00  0.0000E+00  0.0000E+00  0.0000E+00  0.0000E+00  2.0574E-04  0.0000E+00
112  0.0000E+00  1.6288E-04  0.0000E+00  0.0000E+00  0.0000E+00  0.0000E+00  0.0000E+00  0.0000E+00  0.0000E+00
113  0.0000E+00  1.7974E-04  0.0000E+00  0.0000E+00  0.0000E+00  0.0000E+00  2.0330E-03  0.0000E+00  0.0000E+00
114  0.0000E+00  3.8281E-04  0.0000E+00  0.0000E+00  0.0000E+00  9.5617E-04  0.0000E+00  0.0000E+00  0.0000E+00
115  0.0000E+00  1.5174E-03  2.0610E-04  0.0000E+00  1.4114E-02  0.0000E+00  3.2173E-03  0.0000E+00  0.0000E+00
116  0.0000E+00  3.5842E-03  0.0000E+00  0.0000E+00  1.7856E-03  1.5858E-02  0.0000E+00  6.5292E-03  1.2770E-04
117  2.9700E-04  4.4462E-03  1.8592E-02  0.0000E+00  0.0000E+00  0.0000E+00  0.0000E+00  3.1002E-02  0.0000E+00
118  0.0000E+00  1.8112E-02  0.0000E+00  0.0000E+00  0.0000E+00  0.0000E+00  0.0000E+00  1.2438E-02  0.0000E+00
119  0.0000E+00  9.1363E-02  0.0000E+00  0.0000E+00  7.7454E-04  0.0000E+00  1.2554E-01  0.0000E+00  0.0000E+00
120  0.0000E+00  1.5999E-01  0.0000E+00  0.0000E+00  0.0000E+00  0.0000E+00  0.0000E+00  1.0317E-01  4.4908E-01
121  8.0704E+00  1.3699E+01  1.4174E+01  1.3292E+01  1.3086E+01  1.3622E+01  1.2199E+01  1.1040E+01  1.3321E+01
122  4.9421E+01  5.0784E+01  5.2179E+01  5.3032E+01  5.2746E+01  4.9365E+01  5.0624E+01  5.0404E+01  5.0880E+01
123  3.8344E+00  2.9446E+00  3.4230E+00  3.1139E+00  2.2889E+00  1.5229E+00  3.1598E+00  3.9231E+00  3.3297E+00
124  4.5859E+00  1.3478E+00  1.3124E+00  2.3378E+00  1.3662E+00  1.5400E+00  2.5598E+00  1.8164E+00  3.4658E+00
125  2.9789E+01  2.1994E+01  2.3107E+01  2.2656E+01  2.4845E+01  2.7018E+01  2.3795E+01  2.5601E+01  2.1620E+01
126  0.0000E+00  3.0518E-05  0.0000E+00  0.0000E+00  0.0000E+00  0.0000E+00  1.0510E-04  0.0000E+00  0.0000E+00
127  0.0000E+00  2.9370E-05  0.0000E+00  0.0000E+00  0.0000E+00  0.0000E+00  0.0000E+00  0.0000E+00  0.0000E+00
128  0.0000E+00  2.1481E-05  0.0000E+00  0.0000E+00  0.0000E+00  1.0084E-04  0.0000E+00  0.0000E+00  0.0000E+00
129  0.0000E+00  5.7173E-05  0.0000E+00  0.0000E+00  0.0000E+00  0.0000E+00  0.0000E+00  0.0000E+00  0.0000E+00
130  0.0000E+00  6.2645E-05  8.0047E-05  0.0000E+00  0.0000E+00  0.0000E+00  0.0000E+00  0.0000E+00  0.0000E+00
131  0.0000E+00  7.1520E-05  0.0000E+00  0.0000E+00  0.0000E+00  0.0000E+00  0.0000E+00  0.0000E+00  0.0000E+00
132  0.0000E+00  1.8268E-04  0.0000E+00  0.0000E+00  0.0000E+00  0.0000E+00  6.8715E-04  0.0000E+00  0.0000E+00
133  0.0000E+00  1.9813E-04  0.0000E+00  0.0000E+00  0.0000E+00  0.0000E+00  0.0000E+00  0.0000E+00  0.0000E+00
134  0.0000E+00  7.3854E-05  0.0000E+00  0.0000E+00  0.0000E+00  0.0000E+00  0.0000E+00  0.0000E+00  0.0000E+00
135  0.0000E+00  8.7582E-05  0.0000E+00  0.0000E+00  0.0000E+00  0.0000E+00  0.0000E+00  0.0000E+00  0.0000E+00
136  0.0000E+00  1.2314E-04  0.0000E+00  0.0000E+00  0.0000E+00  0.0000E+00  0.0000E+00  0.0000E+00  0.0000E+00
137  0.0000E+00  1.9360E-04  0.0000E+00  0.0000E+00  0.0000E+00  0.0000E+00  0.0000E+00  4.0007E-04  2.2649E-03
138  0.0000E+00  2.5395E-04  0.0000E+00  0.0000E+00  0.0000E+00  6.9995E-04  0.0000E+00  0.0000E+00  0.0000E+00
139  0.0000E+00  5.4498E-04  0.0000E+00  0.0000E+00  0.0000E+00  0.0000E+00  0.0000E+00  0.0000E+00  0.0000E+00
140  0.0000E+00  3.6391E-03  0.0000E+00  1.7409E-03  0.0000E+00  0.0000E+00  0.0000E+00  0.0000E+00  0.0000E+00
141  0.0000E+00  8.3429E-03  0.0000E+00  0.0000E+00  0.0000E+00  0.0000E+00  2.6039E-02  0.0000E+00  0.0000E+00
142  0.0000E+00  1.1264E-02  0.0000E+00  0.0000E+00  0.0000E+00  0.0000E+00  0.0000E+00  0.0000E+00  0.0000E+00
143  0.0000E+00  4.5355E-02  1.9726E-02  1.1953E-02  0.0000E+00  0.0000E+00  0.0000E+00  0.0000E+00  0.0000E+00
144  0.0000E+00  1.2028E-01  0.0000E+00  2.6100E-01  0.0000E+00  0.0000E+00  0.0000E+00  0.0000E+00  1.0894E-01
145  8.9510E-03  2.5478E-01  4.9927E-01  7.8989E-04  2.1071E-01  0.0000E+00  1.6482E-01  2.2237E-01  0.0000E+00
146  0.0000E+00  3.6311E-01  3.0135E-01  5.4436E-02  0.0000E+00  2.2092E-01  2.4001E-01  8.8045E-02  0.0000E+00
147  0.0000E+00  5.7043E-01  7.8965E-01  8.7152E-01  0.0000E+00  5.6056E-02  7.6755E-02  0.0000E+00  0.0000E+00
148  0.0000E+00  3.7305E-01  0.0000E+00  0.0000E+00  4.3244E-01  3.3311E-01  7.7028E-01  0.0000E+00  1.3007E-02
149  2.5621E-03  5.9289E-01  6.6814E-02  0.0000E+00  0.0000E+00  0.0000E+00  3.3463E-01  7.2432E-01  7.4256E-01
150  1.4027E-02  1.6454E+00  0.0000E+00  3.4112E-01  1.4582E+00  1.3719E+00  1.5210E+00  1.2291E+00  1.6787E+00

# AV, chi2 & Mass for <> & i_chain = 1 ...  7 solutions
AV       1.3616      1.3518      1.3527      1.3553      1.3541      1.3535      1.3549      1.3560      1.3575
chi2 2.7248E+00  2.7974E+00  2.7770E+00  2.7705E+00  2.7716E+00  2.7722E+00  2.7738E+00  2.7689E+00  2.7695E+00
Mass 8.0649E-10  7.6406E-10  7.5903E-10  7.6435E-10  7.7417E-10  7.7876E-10  7.8103E-10  7.8851E-10  7.7615E-10
  -6.88                                  [v0_min (km/s) before EX0s...]
 109.54                                  [vd_min (km/s) before EX0s...]


## Synthetic spectrum (Best Model) ##l_obs f_obs f_syn wei
 3070    [Nl_obs]
 3359.00    0.27550   0.36966   -1.000
 3360.00    0.29354   0.35123   -1.000
 3361.00    0.26740   0.35733   -1.000
 3362.00    0.30693   0.38288   -1.000
 3363.00    0.25897   0.41354   -1.000
 3364.00    0.27761   0.43360   -1.000
 3365.00    0.30928   0.43465   -1.000
 3366.00    0.34674   0.41950   -1.000
 3367.00    0.30956   0.39764   -1.000
 3368.00    0.28230   0.37750   -1.000
 3369.00    0.30957   0.36320   -1.000
 3370.00    0.32977   0.35586   63.204
 3371.00    0.27338   0.35677   -1.000
 3372.00    0.29368   0.36816   -1.000
 3373.00    0.31489   0.39020   -1.000
 3374.00    0.31023   0.41825   -1.000
 3375.00    0.31749   0.44353   -1.000
 3376.00    0.33289   0.45640   -1.000
 3377.00    0.33455   0.45183   -1.000
 3378.00    0.35267   0.43433   -1.000
 3379.00    0.32982   0.41594   -1.000
 3380.00    0.33127   0.40781   -1.000
 3381.00    0.32776   0.41296   -1.000
 3382.00    0.36483   0.42643   47.125
 3383.00    0.39938   0.44151   44.926
 3384.00    0.39081   0.45418   45.208
 3385.00    0.37773   0.46272   -1.000
 3386.00    0.36870   0.46648   -1.000
 3387.00    0.36469   0.46638   -1.000
 3388.00    0.33830   0.46410   -1.000
 3389.00    0.35714   0.45936   -1.000
 3390.00    0.36667   0.45012   -1.000
 3391.00    0.37011   0.43724   43.890
 3392.00    0.36762   0.42715   42.441
 3393.00    0.34967   0.42728   40.519
 3394.00    0.35323   0.43957   -1.000
 3395.00    0.38791   0.45946   37.224
 3396.00    0.41060   0.48057   36.047
 3397.00    0.41419   0.49905   34.764
 3398.00    0.42279   0.51263   34.385
 3399.00    0.46155   0.51889   34.810
 3400.00    0.44853   0.51644   36.269
 3401.00    0.45688   0.50635   36.644
 3402.00    0.45648   0.49232   37.297
 3403.00    0.44676   0.47860   37.973
 3404.00    0.44827   0.46724   38.550
 3405.00    0.45155   0.45787   38.758
 3406.00    0.38486   0.45005   39.354
 3407.00    0.39290   0.44514   39.518
 3408.00    0.41045   0.44516   39.172
 3409.00    0.42197   0.44939   38.045
 3410.00    0.42469   0.45258   37.941
 3411.00    0.44182   0.44816   39.545
 3412.00    0.45105   0.43502   40.175
 3413.00    0.43666   0.42006   39.980
 3414.00    0.41843   0.41329   38.893
 3415.00    0.42473   0.42051   37.188
 3416.00    0.42478   0.43985   35.411
 3417.00    0.41714   0.46457   33.779
 3418.00    0.42053   0.48741   33.660
 3419.00    0.43882   0.50253   33.467
 3420.00    0.48967   0.50578   33.757
 3421.00    0.49874   0.49700   34.744
 3422.00    0.48697   0.48224   35.342
 3423.00    0.47344   0.47028   34.306
 3424.00    0.47207   0.46577   33.476
 3425.00    0.47764   0.46819   36.634
 3426.00    0.48308   0.47603   -1.000
 3427.00    0.48673   0.48895  294.498
 3428.00    0.47054   0.50470   -1.000
 3429.00    0.51627   0.51597  294.498
 3430.00    0.51959   0.51470  171.223
 3431.00    0.50360   0.50107   33.441
 3432.00    0.46630   0.48476   36.689
 3433.00    0.45774   0.47631   -1.000
 3434.00    0.47183   0.47722  167.853
 3435.00    0.45818   0.47946   33.386
 3436.00    0.48435   0.47382   35.015
 3437.00    0.47576   0.45623   37.203
 3438.00    0.46808   0.42829   40.028
 3439.00    0.45463   0.39603   41.453
 3440.00    0.41705   0.36779   41.477
 3441.00    0.38871   0.35094   41.127
 3442.00    0.37622   0.34885   39.402
 3443.00    0.39156   0.35921   37.233
 3444.00    0.37476   0.37656   35.260
 3445.00    0.38949   0.39676   38.012
 3446.00    0.42864   0.41844   -1.000
 3447.00    0.45490   0.44124   -1.000
 3448.00    0.46902   0.46293  294.498
 3449.00    0.46270   0.47797   -1.000
 3450.00    0.46661   0.48132   -1.000
 3451.00    0.48544   0.47504   -1.000
 3452.00    0.48000   0.46787   -1.000
 3453.00    0.46408   0.46696  294.498
 3454.00    0.49443   0.47118   -1.000
 3455.00    0.49815   0.47279   -1.000
 3456.00    0.51382   0.46527   -1.000
 3457.00    0.48974   0.44889   33.377
 3458.00    0.47829   0.42959   33.751
 3459.00    0.45278   0.41461   37.649
 3460.00    0.48296   0.40915   -1.000
 3461.00    0.47684   0.41525   -1.000
 3462.00    0.45434   0.43014   -1.000
 3463.00    0.50630   0.44564   -1.000
 3464.00    0.52553   0.45425   -1.000
 3465.00    0.49362   0.45671   -1.000
 3466.00    0.49328   0.45997   -1.000
 3467.00    0.49873   0.46901   -1.000
 3468.00    0.48617   0.48208  281.965
 3469.00    0.52763   0.49239   -1.000
 3470.00    0.53372   0.49319   -1.000
 3471.00    0.52438   0.48152   -1.000
 3472.00    0.50893   0.45929   -1.000
 3473.00    0.50895   0.43244   33.761
 3474.00    0.48471   0.40921   34.773
 3475.00    0.44524   0.39760   38.613
 3476.00    0.44233   0.40177   -1.000
 3477.00    0.45493   0.41897   -1.000
 3478.00    0.46049   0.44082   -1.000
 3479.00    0.50384   0.45843   -1.000
 3480.00    0.51409   0.46664   -1.000
 3481.00    0.50259   0.46520   -1.000
 3482.00    0.50706   0.45836   -1.000
 3483.00    0.50110   0.45327   -1.000
 3484.00    0.49906   0.45610   -1.000
 3485.00    0.49033   0.46666   -1.000
 3486.00    0.50687   0.47701   -1.000
 3487.00    0.53394   0.47720   -1.000
 3488.00    0.51971   0.46347   -1.000
 3489.00    0.47642   0.44204   -1.000
 3490.00    0.47731   0.42443   -1.000
 3491.00    0.45374   0.41870   -1.000
 3492.00    0.46634   0.42426   -1.000
 3493.00    0.49758   0.43368   -1.000
 3494.00    0.47413   0.43920   -1.000
 3495.00    0.45619   0.43915   -1.000
 3496.00    0.46180   0.43976   -1.000
 3497.00    0.47127   0.44944   -1.000
 3498.00    0.48150   0.46984   -1.000
 3499.00    0.48752   0.49363  262.633
 3500.00    0.53561   0.51252   -1.000
 3501.00    0.54009   0.52473   -1.000
 3502.00    0.53808   0.53185  266.098
 3503.00    0.57850   0.53340   -1.000
 3504.00    0.56064   0.52846   -1.000
 3505.00    0.53172   0.51940   -1.000
 3506.00    0.52802   0.51054   -1.000
 3507.00    0.53906   0.50334   -1.000
 3508.00    0.54208   0.49525   -1.000
 3509.00    0.52413   0.48401   -1.000
 3510.00    0.50975   0.47017   -1.000
 3511.00    0.51781   0.45552   -1.000
 3512.00    0.50817   0.44251   -1.000
 3513.00    0.48153   0.43566   -1.000
 3514.00    0.48445   0.44106   -1.000
 3515.00    0.44810   0.46125   -1.000
 3516.00    0.47202   0.48974   -1.000
 3517.00    0.52345   0.51326   -1.000
 3518.00    0.56405   0.52062   -1.000
 3519.00    0.55105   0.50949   -1.000
 3520.00    0.53628   0.48570   -1.000
 3521.00    0.51461   0.45762   -1.000
 3522.00    0.51232   0.43119   33.497
 3523.00    0.48785   0.40942   34.480
 3524.00    0.45574   0.39603   40.040
 3525.00    0.42886   0.39643   -1.000
 3526.00    0.44789   0.41319   -1.000
 3527.00    0.45373   0.44184   -1.000
 3528.00    0.47695   0.47204  277.565
 3529.00    0.50711   0.49325   -1.000
 3530.00    0.52991   0.50144   -1.000
 3531.00    0.52352   0.50144   -1.000
 3532.00    0.49939   0.50194  275.433
 3533.00    0.50221   0.50773  269.824
 3534.00    0.53228   0.51711   -1.000
 3535.00    0.54714   0.52600   -1.000
 3536.00    0.55204   0.53292   -1.000
 3537.00    0.50382   0.53919   -1.000
 3538.00    0.50940   0.54454   -1.000
 3539.00    0.56506   0.54600   -1.000
 3540.00    0.53768   0.54246  270.992
 3541.00    0.53588   0.53781  268.787
 3542.00    0.53591   0.53768  265.243
 3543.00    0.51320   0.54301   -1.000
 3544.00    0.53849   0.54895  270.696
 3545.00    0.52915   0.55044   -1.000
 3546.00    0.55375   0.54720  276.760
 3547.00    0.54729   0.54307  275.902
 3548.00    0.50661   0.54091   -1.000
 3549.00    0.50975   0.53931   -1.000
 3550.00    0.52179   0.53435   -1.000
 3551.00    0.49219   0.52391   -1.000
 3552.00    0.48951   0.51034   -1.000
 3553.00    0.49987   0.49938  294.498
 3554.00    0.48629   0.49542  290.460
 3555.00    0.45562   0.49747   -1.000
 3556.00    0.45677   0.50064   -1.000
 3557.00    0.49284   0.50154  294.498
 3558.00    0.47767   0.50142   -1.000
 3559.00    0.47538   0.50427   -1.000
 3560.00    0.49170   0.51129   -1.000
 3561.00    0.50485   0.51735   -1.000
 3562.00    0.50608   0.51343  123.078
 3563.00    0.49524   0.49393   33.897
 3564.00    0.48950   0.46326   34.956
 3565.00    0.46887   0.43385   34.575
 3566.00    0.44919   0.41555   34.638
 3567.00    0.42200   0.40719   35.737
 3568.00    0.41676   0.40139   36.042
 3569.00    0.42987   0.39540   34.797
 3570.00    0.41774   0.39356   40.385
 3571.00    0.41980   0.40066   -1.000
 3572.00    0.43397   0.41560   -1.000
 3573.00    0.46003   0.43229   -1.000
 3574.00    0.45793   0.44504   -1.000
 3575.00    0.44502   0.45045  294.498
 3576.00    0.45208   0.44624  124.820
 3577.00    0.48092   0.43138   35.286
 3578.00    0.45233   0.40758   37.951
 3579.00    0.40783   0.38048   39.665
 3580.00    0.38282   0.35824   39.885
 3581.00    0.36680   0.34654   40.214
 3582.00    0.36715   0.34439   41.303
 3583.00    0.38359   0.34564   42.519
 3584.00    0.39498   0.34523   42.536
 3585.00    0.36659   0.34392   40.332
 3586.00    0.36848   0.34702   38.221
 3587.00    0.37483   0.35956   36.030
 3588.00    0.39485   0.38271   40.719
 3589.00    0.42055   0.41299  294.498
 3590.00    0.42408   0.44341   -1.000
 3591.00    0.44005   0.46692   -1.000
 3592.00    0.47035   0.48135  289.809
 3593.00    0.46720   0.49138   -1.000
 3594.00    0.45978   0.50387   -1.000
 3595.00    0.48189   0.52131   -1.000
 3596.00    0.50600   0.54053   -1.000
 3597.00    0.53203   0.55711   -1.000
 3598.00    0.56332   0.56870  255.397
 3599.00    0.56741   0.57278  268.297
 3600.00    0.56068   0.56541  282.915
 3601.00    0.56575   0.54544   -1.000
 3602.00    0.52148   0.51799  294.498
 3603.00    0.49704   0.49163  294.498
 3604.00    0.48987   0.47251   -1.000
 3605.00    0.50091   0.46035   -1.000
 3606.00    0.47798   0.45029   -1.000
 3607.00    0.45233   0.43912   -1.000
 3608.00    0.45055   0.42993   -1.000
 3609.00    0.44934   0.42954   -1.000
 3610.00    0.44391   0.44116  292.306
 3611.00    0.48901   0.46085   -1.000
 3612.00    0.50872   0.48173   -1.000
 3613.00    0.50832   0.49970  271.494
 3614.00    0.51072   0.51194  276.971
 3615.00    0.52068   0.51288   -1.000
 3616.00    0.51662   0.49724  111.403
 3617.00    0.48623   0.46863   41.172
 3618.00    0.45828   0.44228   -1.000
 3619.00    0.43059   0.43538  280.015
 3620.00    0.46173   0.45306  266.229
 3621.00    0.51510   0.48616   -1.000
 3622.00    0.51984   0.52162  255.975
 3623.00    0.53174   0.55331   -1.000
 3624.00    0.55699   0.58283   -1.000
 3625.00    0.57353   0.61143   -1.000
 3626.00    0.59368   0.63326   -1.000
 3627.00    0.63993   0.63736  260.327
 3628.00    0.62924   0.61600   -1.000
 3629.00    0.59113   0.57234   -1.000
 3630.00    0.54023   0.52190   -1.000
 3631.00    0.49147   0.48444  294.498
 3632.00    0.47689   0.47123  289.614
 3633.00    0.47947   0.47994  281.979
 3634.00    0.49490   0.50025  270.669
 3635.00    0.49558   0.52307   -1.000
 3636.00    0.53762   0.54561  247.067
 3637.00    0.57293   0.56902  240.686
 3638.00    0.57589   0.59223   -1.000
 3639.00    0.60113   0.60964  248.662
 3640.00    0.61596   0.61488  258.287
 3641.00    0.61524   0.60574  270.954
 3642.00    0.56938   0.58571   -1.000
 3643.00    0.53766   0.56107   -1.000
 3644.00    0.52020   0.53653   -1.000
 3645.00    0.50988   0.51398  291.238
 3646.00    0.50678   0.49499   -1.000
 3647.00    0.52462   0.48339   -1.000
 3648.00    0.50727   0.48470   -1.000
 3649.00    0.49678   0.50198  255.835
 3650.00    0.51658   0.53245   -1.000
 3651.00    0.54740   0.56833   -1.000
 3652.00    0.57370   0.60062   -1.000
 3653.00    0.59280   0.62419   -1.000
 3654.00    0.61107   0.64034   -1.000
 3655.00    0.61146   0.65420   -1.000
 3656.00    0.61422   0.66901   -1.000
 3657.00    0.63566   0.68368   -1.000
 3658.00    0.64789   0.69437   -1.000
 3659.00    0.65315   0.69768   -1.000
 3660.00    0.64976   0.69251   -1.000
 3661.00    0.65073   0.68037   -1.000
 3662.00    0.63464   0.66562   -1.000
 3663.00    0.61180   0.65356   -1.000
 3664.00    0.60561   0.64681   -1.000
 3665.00    0.61660   0.64322   -1.000
 3666.00    0.61895   0.63805   -1.000
 3667.00    0.61620   0.62874   -1.000
 3668.00    0.60601   0.61852   -1.000
 3669.00    0.59452   0.61471   -1.000
 3670.00    0.59389   0.62198   -1.000
 3671.00    0.60941   0.63725   -1.000
 3672.00    0.60779   0.65202   -1.000
 3673.00    0.63683   0.65921   -1.000
 3674.00    0.65774   0.65599  243.691
 3675.00    0.63221   0.64230  251.240
 3676.00    0.61744   0.61984  258.551
 3677.00    0.60926   0.59283   -1.000
 3678.00    0.59302   0.56845   -1.000
 3679.00    0.55456   0.55462  253.604
 3680.00    0.54445   0.55545  247.562
 3681.00    0.56111   0.56755  247.497
 3682.00    0.58148   0.58114  254.755
 3683.00    0.58194   0.58567  265.334
 3684.00    0.58468   0.57595  274.658
 3685.00    0.56456   0.55554  276.063
 3686.00    0.52666   0.53614  265.142
 3687.00    0.51548   0.53123   -1.000
 3688.00    0.51601   0.54787   -1.000
 3689.00    0.54659   0.58151   -1.000
 3690.00    0.58932   0.61836   -1.000
 3691.00    0.62800   0.64293   -1.000
 3692.00    0.64939   0.64801  239.637
 3693.00    0.63455   0.63905  238.218
 3694.00    0.62546   0.62861  235.857
 3695.00    0.60585   0.62643   -1.000
 3696.00    0.60719   0.63556   -1.000
 3697.00    0.61651   0.65352   -1.000
 3698.00    0.62658   0.67353   -1.000
 3699.00    0.66787   0.68669   -1.000
 3700.00    0.70009   0.68503   -1.000
 3701.00    0.67160   0.66422  260.643
 3702.00    0.62860   0.62496  282.759
 3703.00    0.59243   0.57477   -1.000
 3704.00    0.54468   0.52625   -1.000
 3705.00    0.50836   0.49129   -1.000
 3706.00    0.49282   0.47486   -1.000
 3707.00    0.49239   0.47570   -1.000
 3708.00    0.51493   0.49058   -1.000
 3709.00    0.52513   0.51830  242.577
 3710.00    0.53887   0.55688   -1.000
 3711.00    0.58857   0.60053  219.902
 3712.00    0.63297   0.64037  215.889
 3713.00    0.67656   0.66740  217.062
 3714.00    0.68401   0.67499  224.055
 3715.00    0.66315   0.66106  237.280
 3716.00    0.66088   0.62695   -1.000
 3717.00    0.61303   0.57631   -1.000
 3718.00    0.53225   0.51660   95.357
 3719.00    0.48505   0.46075   45.125
 3720.00    0.45879   0.42421   -1.000
 3721.00    0.42693   0.41805  270.310
 3722.00    0.43969   0.44226  247.497
 3723.00    0.49501   0.48408  240.872
 3724.00    0.56568   0.52522   -1.000
 3725.00    0.60427   0.55103   -1.000
 3726.00    0.60105   0.55825   -1.000
 3727.00    0.57143   0.55481   -1.000
 3728.00    0.54808   0.54963  254.108
 3729.00    0.57695   0.54237   -1.000
 3730.00    0.57155   0.52481   -1.000
 3731.00    0.53738   0.49116   34.267
 3732.00    0.50575   0.44516   37.621
 3733.00    0.46598   0.39886   38.013
 3734.00    0.41579   0.36615   35.559
 3735.00    0.37572   0.35610   44.678
 3736.00    0.37876   0.37184  283.785
 3737.00    0.39778   0.40901  258.992
 3738.00    0.44799   0.45742  248.116
 3739.00    0.52119   0.50288   -1.000
 3740.00    0.57743   0.53159   -1.000
 3741.00    0.58351   0.53512   -1.000
 3742.00    0.56317   0.51567   -1.000
 3743.00    0.50773   0.48330   -1.000
 3744.00    0.48053   0.44981   -1.000
 3745.00    0.46002   0.42169   34.291
 3746.00    0.43799   0.39998   35.974
 3747.00    0.43783   0.38429   49.288
 3748.00    0.41953   0.37918   -1.000
 3749.00    0.40064   0.39194  276.566
 3750.00    0.43988   0.42549   -1.000
 3751.00    0.48685   0.47450  233.758
 3752.00    0.51243   0.52762   -1.000
 3753.00    0.56936   0.57247  224.667
 3754.00    0.62609   0.59794   -1.000
 3755.00    0.64098   0.59584   -1.000
 3756.00    0.61463   0.56771   -1.000
 3757.00    0.55555   0.52873   -1.000
 3758.00    0.50593   0.49875  270.608
 3759.00    0.49944   0.48871   -1.000
 3760.00    0.51398   0.49476   -1.000
 3761.00    0.52916   0.50462   -1.000
 3762.00    0.54350   0.50982   -1.000
 3763.00    0.54554   0.50921   -1.000
 3764.00    0.52735   0.50588   -1.000
 3765.00    0.54391   0.50246   -1.000
 3766.00    0.54723   0.50135   -1.000
 3767.00    0.52337   0.50544   -1.000
 3768.00    0.52571   0.51616  260.347
 3769.00    0.56738   0.53253   -1.000
 3770.00    0.57331   0.55285   -1.000
 3771.00    0.58601   0.57499  230.631
 3772.00    0.60941   0.59555  230.083
 3773.00    0.63736   0.61066   -1.000
 3774.00    0.63955   0.61909   -1.000
 3775.00    0.62996   0.62308  227.668
 3776.00    0.63828   0.62728  222.952
 3777.00    0.61691   0.63501   -1.000
 3778.00    0.62329   0.64676   -1.000
 3779.00    0.64471   0.66063   -1.000
 3780.00    0.67022   0.67343  210.122
 3781.00    0.69268   0.68228  211.793
 3782.00    0.68204   0.68423  218.818
 3783.00    0.69100   0.67569   -1.000
 3784.00    0.68147   0.65377   -1.000
 3785.00    0.64024   0.61998   -1.000
 3786.00    0.58553   0.58183  260.739
 3787.00    0.53598   0.54944  258.980
 3788.00    0.52300   0.53016  254.929
 3789.00    0.51332   0.52558  254.496
 3790.00    0.53829   0.53031  260.395
 3791.00    0.56062   0.53464   -1.000
 3792.00    0.57300   0.53090   -1.000
 3793.00    0.54947   0.51774   -1.000
 3794.00    0.51036   0.49899   -1.000
 3795.00    0.49570   0.47951   -1.000
 3796.00    0.47980   0.46209   -1.000
 3797.00    0.47350   0.45073   -1.000
 3798.00    0.46613   0.45196   -1.000
 3799.00    0.46173   0.47112  247.358
 3800.00    0.48196   0.50617   -1.000
 3801.00    0.51398   0.54738   -1.000
 3802.00    0.54563   0.58281   -1.000
 3803.00    0.56960   0.60444   -1.000
 3804.00    0.57671   0.60958   -1.000
 3805.00    0.57444   0.60261   -1.000
 3806.00    0.55427   0.59291   -1.000
 3807.00    0.52987   0.59006   -1.000
 3808.00    0.53937   0.59663   -1.000
 3809.00    0.57582   0.60623   -1.000
 3810.00    0.59598   0.60774  255.421
 3811.00    0.58632   0.59362  271.198
 3812.00    0.57228   0.56484  286.161
 3813.00    0.53512   0.52999  292.820
 3814.00    0.49277   0.50001  285.259
 3815.00    0.47329   0.48148  279.668
 3816.00    0.46097   0.47349  289.720
 3817.00    0.46677   0.46799  294.498
 3818.00    0.47237   0.45785   -1.000
 3819.00    0.44586   0.44395  294.498
 3820.00    0.42609   0.43377  294.498
 3821.00    0.43028   0.43133  294.498
 3822.00    0.44239   0.43125   84.172
 3823.00    0.45149   0.42495   35.060
 3824.00    0.43704   0.41036   35.432
 3825.00    0.40840   0.39455   35.015
 3826.00    0.40083   0.38579   34.440
 3827.00    0.40399   0.38616   34.224
 3828.00    0.40372   0.39191   35.064
 3829.00    0.41839   0.39639   37.107
 3830.00    0.42114   0.39428   39.473
 3831.00    0.40340   0.38466   39.930
 3832.00    0.37844   0.37185   38.804
 3833.00    0.37175   0.36223   37.479
 3834.00    0.37977   0.35963   37.246
 3835.00    0.38800   0.36267   38.110
 3836.00    0.41395   0.36681   38.451
 3837.00    0.41233   0.36957   37.169
 3838.00    0.40716   0.37326   52.195
 3839.00    0.38284   0.38391  294.498
 3840.00    0.39207   0.40607   -1.000
 3841.00    0.42929   0.43869  272.869
 3842.00    0.46171   0.47502   -1.000
 3843.00    0.47954   0.50658   -1.000
 3844.00    0.51965   0.52852  269.920
 3845.00    0.52363   0.54029   -1.000
 3846.00    0.50756   0.54401   -1.000
 3847.00    0.51441   0.54125   -1.000
 3848.00    0.50940   0.53401   -1.000
 3849.00    0.49635   0.52675   -1.000
 3850.00    0.49365   0.52426   -1.000
 3851.00    0.47938   0.52683   -1.000
 3852.00    0.49121   0.52931   -1.000
 3853.00    0.50464   0.52593   -1.000
 3854.00    0.48497   0.51530   -1.000
 3855.00    0.46818   0.49948   76.316
 3856.00    0.46682   0.48101   33.699
 3857.00    0.45077   0.46242   34.755
 3858.00    0.43258   0.44870   50.706
 3859.00    0.41469   0.44724   -1.000
 3860.00    0.41524   0.46225   -1.000
 3861.00    0.44412   0.48922   -1.000
 3862.00    0.48209   0.51676   -1.000
 3863.00    0.51784   0.53410   -1.000
 3864.00    0.53503   0.53861  276.586
 3865.00    0.53462   0.53489  284.143
 3866.00    0.50551   0.52854   -1.000
 3867.00    0.48744   0.52074   -1.000
 3868.00    0.48695   0.50936   76.548
 3869.00    0.47083   0.49412   50.138
 3870.00    0.44352   0.47970   -1.000
 3871.00    0.43179   0.47432   -1.000
 3872.00    0.45279   0.48367   -1.000
 3873.00    0.48295   0.50474   -1.000
 3874.00    0.51113   0.52662   -1.000
 3875.00    0.54616   0.53699   -1.000
 3876.00    0.55811   0.53131   -1.000
 3877.00    0.52196   0.51553  294.498
 3878.00    0.48398   0.50087   -1.000
 3879.00    0.46972   0.49384   -1.000
 3880.00    0.47525   0.49418   -1.000
 3881.00    0.47243   0.49942   -1.000
 3882.00    0.46896   0.50676   -1.000
 3883.00    0.50084   0.51168  275.088
 3884.00    0.53679   0.50785   -1.000
 3885.00    0.54053   0.49313   -1.000
 3886.00    0.51704   0.47512   -1.000
 3887.00    0.50732   0.46682   -1.000
 3888.00    0.51267   0.47762   -1.000
 3889.00    0.53792   0.50825   -1.000
 3890.00    0.58850   0.55034   -1.000
 3891.00    0.63856   0.59117   -1.000
 3892.00    0.65470   0.61991   -1.000
 3893.00    0.66108   0.63290   -1.000
 3894.00    0.65987   0.63465   -1.000
 3895.00    0.63644   0.63340  217.663
 3896.00    0.62879   0.63356  221.493
 3897.00    0.64159   0.63451  222.100
 3898.00    0.65304   0.63466   -1.000
 3899.00    0.64944   0.63421   -1.000
 3900.00    0.64988   0.63389   -1.000
 3901.00    0.65292   0.63184   -1.000
 3902.00    0.65010   0.62506   -1.000
 3903.00    0.63618   0.61430   -1.000
 3904.00    0.60886   0.60523  234.511
 3905.00    0.60546   0.60551  219.657
 3906.00    0.62457   0.61966  208.725
 3907.00    0.63874   0.64541  205.161
 3908.00    0.68104   0.67539  203.313
 3909.00    0.70371   0.70171  201.668
 3910.00    0.71737   0.72026  201.943
 3911.00    0.74560   0.73091   -1.000
 3912.00    0.76268   0.73489   -1.000
 3913.00    0.75331   0.73257   -1.000
 3914.00    0.73951   0.72431   -1.000
 3915.00    0.73335   0.71103   -1.000
 3916.00    0.70817   0.69350   -1.000
 3917.00    0.68698   0.67166   -1.000
 3918.00    0.67466   0.64576   -1.000
 3919.00    0.64653   0.61860   -1.000
 3920.00    0.60319   0.59598  246.568
 3921.00    0.58315   0.58288  244.655
 3922.00    0.58343   0.57931  250.896
 3923.00    0.59953   0.57915   -1.000
 3924.00    0.61147   0.57297   -1.000
 3925.00    0.60470   0.55405   -1.000
 3926.00    0.57004   0.52146   39.205
 3927.00    0.50416   0.47965   45.938
 3928.00    0.45481   0.43469   53.983
 3929.00    0.40372   0.39080   63.630
 3930.00    0.34273   0.35015   72.481
 3931.00    0.29624   0.31405   74.970
 3932.00    0.28580   0.28634   68.682
 3933.00    0.28347   0.27313   58.237
 3934.00    0.27423   0.27939   47.973
 3935.00    0.30355   0.30561   39.815
 3936.00    0.34895   0.34690   57.024
 3937.00    0.39010   0.39568  294.498
 3938.00    0.45204   0.44433   -1.000
 3939.00    0.50923   0.48573   -1.000
 3940.00    0.53904   0.51488   -1.000
 3941.00    0.54415   0.53173   -1.000
 3942.00    0.53862   0.54121  257.019
 3943.00    0.53392   0.55176   -1.000
 3944.00    0.53737   0.56982   -1.000
 3945.00    0.56874   0.59515   -1.000
 3946.00    0.63506   0.62211   -1.000
 3947.00    0.67804   0.64620   -1.000
 3948.00    0.68402   0.66691   -1.000
 3949.00    0.68816   0.68488  212.277
 3950.00    0.71867   0.69910   -1.000
 3951.00    0.73640   0.70807   -1.000
 3952.00    0.73479   0.71305   -1.000
 3953.00    0.74322   0.71648   -1.000
 3954.00    0.74972   0.71753   -1.000
 3955.00    0.73246   0.71425   -1.000
 3956.00    0.71070   0.70672  216.580
 3957.00    0.70459   0.69534  229.281
 3958.00    0.70030   0.67722   -1.000
 3959.00    0.68824   0.64674   -1.000
 3960.00    0.63876   0.60272   -1.000
 3961.00    0.57907   0.55321   70.587
 3962.00    0.52467   0.50774   37.035
 3963.00    0.47695   0.46885   44.360
 3964.00    0.45234   0.43186   54.601
 3965.00    0.41648   0.39054   64.119
 3966.00    0.36157   0.34638   65.605
 3967.00    0.31156   0.30858   57.498
 3968.00    0.30147   0.28869   47.265
 3969.00    0.30953   0.29416   39.168
 3970.00    0.33283   0.32417   57.731
 3971.00    0.39017   0.37191   -1.000
 3972.00    0.44113   0.42918   -1.000
 3973.00    0.48222   0.48924  235.507
 3974.00    0.54712   0.54816  219.197
 3975.00    0.61212   0.60426  206.977
 3976.00    0.65435   0.65673  195.983
 3977.00    0.70259   0.70517  189.125
 3978.00    0.75674   0.74717  188.585
 3979.00    0.79825   0.77890   -1.000
 3980.00    0.82173   0.79720   -1.000
 3981.00    0.82616   0.80315   -1.000
 3982.00    0.80711   0.80328  185.872
 3983.00    0.79354   0.80539  182.510
 3984.00    0.81882   0.81449  179.309
 3985.00    0.84429   0.83054  176.640
 3986.00    0.84536   0.84983  176.042
 3987.00    0.86985   0.86748  175.920
 3988.00    0.89768   0.87982  173.388
 3989.00    0.88848   0.88709  169.216
 3990.00    0.89309   0.89301  167.907
 3991.00    0.91870   0.90017  170.973
 3992.00    0.92236   0.90675  175.067
 3993.00    0.90526   0.90802  178.792
 3994.00    0.88701   0.90145  181.327
 3995.00    0.87506   0.89036  180.185
 3996.00    0.86476   0.88264   -1.000
 3997.00    0.86215   0.88613   -1.000
 3998.00    0.87998   0.90306   -1.000
 3999.00    0.92261   0.92830  160.255
 4000.00    0.97003   0.95219  160.490
 4001.00    0.99215   0.96509   -1.000
 4002.00    0.99253   0.96044   -1.000
 4003.00    0.98532   0.93787   -1.000
 4004.00    0.93582   0.90685   -1.000
 4005.00    0.86433   0.88445   -1.000
 4006.00    0.84897   0.88412   -1.000
 4007.00    0.88788   0.90540   -1.000
 4008.00    0.94869   0.93638  159.484
 4009.00    0.97525   0.96369  159.765
 4010.00    0.97807   0.98183  160.815
 4011.00    1.00247   0.99290  160.696
 4012.00    0.99829   1.00067  158.932
 4013.00    0.98907   1.00725   -1.000
 4014.00    0.99368   1.01241   -1.000
 4015.00    1.00570   1.01526  160.774
 4016.00    1.00706   1.01656  159.117
 4017.00    0.99612   1.01911   -1.000
 4018.00    1.01008   1.02438  159.333
 4019.00    1.03817   1.02988  161.046
 4020.00    1.03962   1.03156  162.019
 4021.00    1.03219   1.02756  163.185
 4022.00    1.02991   1.01997  161.866
 4023.00    1.02388   1.01348  156.879
 4024.00    1.00508   1.01296  152.417
 4025.00    1.00026   1.02057   -1.000
 4026.00    1.02506   1.03235  155.300
 4027.00    1.05587   1.03709  163.846
 4028.00    1.06021   1.02211   -1.000
 4029.00    1.01890   0.98372   -1.000
 4030.00    0.95930   0.93203   -1.000
 4031.00    0.90179   0.88600  173.664
 4032.00    0.85961   0.86145  166.446
 4033.00    0.84782   0.86540   -1.000
 4034.00    0.85856   0.89692   -1.000
 4035.00    0.91215   0.94761   -1.000
 4036.00    0.99434   1.00234  149.815
 4037.00    1.05437   1.04509  153.276
 4038.00    1.09090   1.06607   -1.000
 4039.00    1.09665   1.06586   -1.000
 4040.00    1.06040   1.05113  161.232
 4041.00    1.02806   1.02468  172.983
 4042.00    1.02704   0.98270   -1.000
 4043.00    0.97575   0.92493   -1.000
 4044.00    0.86512   0.86656  177.921
 4045.00    0.76966   0.83359   -1.000
 4046.00    0.76569   0.84477   -1.000
 4047.00    0.86023   0.89539   -1.000
 4048.00    0.97114   0.95997  153.130
 4049.00    1.02692   1.01348  155.801
 4050.00    1.05021   1.04303  160.041
 4051.00    1.06485   1.04828  163.367
 4052.00    1.04185   1.03619  165.263
 4053.00    0.99891   1.01496  166.460
 4054.00    0.97413   0.99119   -1.000
 4055.00    0.95860   0.96933  167.780
 4056.00    0.93815   0.95350  163.612
 4057.00    0.92072   0.94772   -1.000
 4058.00    0.92656   0.95266   -1.000
 4059.00    0.96278   0.96026  166.024
 4060.00    1.00000   0.95595   -1.000
 4061.00    0.98145   0.93167   -1.000
 4062.00    0.90264   0.89485  176.463
 4063.00    0.83137   0.86536   -1.000
 4064.00    0.82486   0.85873   -1.000
 4065.00    0.87477   0.87562  160.636
 4066.00    0.93431   0.90610   -1.000
 4067.00    0.96514   0.93636   -1.000
 4068.00    0.99297   0.95423   -1.000
 4069.00    1.01876   0.95398   -1.000
 4070.00    0.99477   0.93996   -1.000
 4071.00    0.92989   0.92536  161.814
 4072.00    0.90794   0.92202   -1.000
 4073.00    0.95435   0.92694   -1.000
 4074.00    0.98272   0.92626   -1.000
 4075.00    0.96349   0.91204   -1.000
 4076.00    0.90621   0.89318  176.434
 4077.00    0.84762   0.88974   -1.000
 4078.00    0.85489   0.91323   -1.000
 4079.00    0.92561   0.95769   -1.000
 4080.00    1.01051   1.00363  159.443
 4081.00    1.05890   1.03279   -1.000
 4082.00    1.05277   1.03959  163.289
 4083.00    1.01656   1.03336   -1.000
 4084.00    0.98638   1.03069   -1.000
 4085.00    0.99261   1.04269   -1.000
 4086.00    1.02976   1.06910   -1.000
 4087.00    1.08524   1.09892  147.943
 4088.00    1.13014   1.11963  150.907
 4089.00    1.13406   1.12416  153.145
 4090.00    1.12231   1.11424  154.018
 4091.00    1.09091   1.09682  155.541
 4092.00    1.06554   1.07727  160.699
 4093.00    1.07193   1.05519  167.160
 4094.00    1.06498   1.02797   -1.000
 4095.00    1.00430   0.99648  172.390
 4096.00    0.95765   0.96455  178.749
 4097.00    0.93902   0.93437  192.269
 4098.00    0.93178   0.90341   -1.000
 4099.00    0.91926   0.86985   -1.000
 4100.00    0.86589   0.83972   -1.000
 4101.00    0.80934   0.82627   -1.000
 4102.00    0.79338   0.83942   -1.000
 4103.00    0.83354   0.87801   -1.000
 4104.00    0.90504   0.92888   -1.000
 4105.00    0.96198   0.97652   -1.000
 4106.00    0.99605   1.01000   -1.000
 4107.00    1.02019   1.02565  167.970
 4108.00    1.02364   1.02663  167.969
 4109.00    0.98888   1.02023   -1.000
 4110.00    0.96099   1.01509   -1.000
 4111.00    0.97545   1.01800   -1.000
 4112.00    0.98871   1.03059   -1.000
 4113.00    0.99408   1.04915   -1.000
 4114.00    1.02101   1.06613   -1.000
 4115.00    1.05194   1.07392   -1.000
 4116.00    1.06322   1.06878  167.114
 4117.00    1.04982   1.05352  166.792
 4118.00    1.00079   1.03644   -1.000
 4119.00    0.96813   1.02552   -1.000
 4120.00    0.99062   1.02386   -1.000
 4121.00    1.00189   1.02914   -1.000
 4122.00    0.99443   1.03757   -1.000
 4123.00    1.00056   1.04653   -1.000
 4124.00    1.01462   1.05360   -1.000
 4125.00    1.03365   1.05564   -1.000
 4126.00    1.04806   1.05064  166.552
 4127.00    1.02035   1.03917   -1.000
 4128.00    0.98001   1.02290   -1.000
 4129.00    0.97586   1.00231   -1.000
 4130.00    0.95891   0.97774   -1.000
 4131.00    0.91602   0.95470   -1.000
 4132.00    0.88436   0.94282   -1.000
 4133.00    0.88113   0.95078   -1.000
 4134.00    0.90205   0.97893   -1.000
 4135.00    0.95937   1.01790   -1.000
 4136.00    1.02533   1.05549   -1.000
 4137.00    1.04889   1.08288   -1.000
 4138.00    1.04979   1.09471   -1.000
 4139.00    1.04248   1.08727   -1.000
 4140.00    1.03598   1.05823   -1.000
 4141.00    1.00606   1.01256  185.984
 4142.00    0.92571   0.96571   -1.000
 4143.00    0.84454   0.93812   -1.000
 4144.00    0.83799   0.94049   -1.000
 4145.00    0.89307   0.96569   -1.000
 4146.00    0.96492   0.99604   -1.000
 4147.00    1.00073   1.01533   -1.000
 4148.00    0.98369   1.01938   -1.000
 4149.00    0.95664   1.01369   -1.000
 4150.00    0.93437   1.00539   -1.000
 4151.00    0.92026   0.99789   -1.000
 4152.00    0.92720   0.99105   -1.000
 4153.00    0.93928   0.98497   -1.000
 4154.00    1.07259   0.98209   -1.000
 4155.00    1.14997   0.98620   -1.000
 4156.00    0.88349   1.00026   -1.000
 4157.00    0.73855   1.02343   -1.000
 4158.00    0.90126   1.05152   -1.000
 4159.00    1.01710   1.07954   -1.000
 4160.00    1.03197   1.10289   -1.000
 4161.00    1.04057   1.11964   -1.000
 4162.00    1.05343   1.12791   -1.000
 4163.00    1.05400   1.12569   -1.000
 4164.00    1.03449   1.11256   -1.000
 4165.00    1.01328   1.09276   -1.000
 4166.00    0.98264   1.07361   -1.000
 4167.00    0.96066   1.06161   -1.000
 4168.00    0.97184   1.05550   -1.000
 4169.00    0.98514   1.04710   -1.000
 4170.00    0.99507   1.02937   -1.000
 4171.00    0.95486   1.00307   -1.000
 4172.00    0.89468   0.97890   -1.000
 4173.00    0.88084   0.96726   -1.000
 4174.00    0.89169   0.97043   -1.000
 4175.00    0.91229   0.98294   -1.000
 4176.00    0.92106   0.99761   -1.000
 4177.00    0.91789   1.01079   -1.000
 4178.00    0.93986   1.02166   -1.000
 4179.00    0.96883   1.02882   -1.000
 4180.00    0.96130   1.03260   -1.000
 4181.00    0.94626   1.03690   -1.000
 4182.00    0.95944   1.04588   -1.000
 4183.00    0.99250   1.05921   -1.000
 4184.00    1.02707   1.06863   -1.000
 4185.00    1.03743   1.06722   -1.000
 4186.00    1.01650   1.05713   -1.000
 4187.00    0.97702   1.04806   -1.000
 4188.00    0.96193   1.04911   -1.000
 4189.00    0.97875   1.06045   -1.000
 4190.00    0.99238   1.07645   -1.000
 4191.00    0.99808   1.09056   -1.000
 4192.00    1.03059   1.09734   -1.000
 4193.00    1.07366   1.09114   -1.000
 4194.00    1.05931   1.06925  181.177
 4195.00    0.99283   1.03473   -1.000
 4196.00    0.92449   0.99861   -1.000
 4197.00    0.90018   0.97106   -1.000
 4198.00    0.89933   0.95703   -1.000
 4199.00    0.93722   0.95510   -1.000
 4200.00    0.96648   0.96203  174.496
 4201.00    0.95043   0.97602   -1.000
 4202.00    0.94230   0.99766   -1.000
 4203.00    0.97567   1.02741   -1.000
 4204.00    1.00697   1.06243   -1.000
 4205.00    1.03138   1.09705   -1.000
 4206.00    1.06326   1.12474   -1.000
 4207.00    1.08956   1.14224   -1.000
 4208.00    1.10591   1.14957   -1.000
 4209.00    1.08478   1.15006   -1.000
 4210.00    1.05653   1.14739   -1.000
 4211.00    1.06199   1.14077   -1.000
 4212.00    1.06533   1.12616   -1.000
 4213.00    1.04017   1.10303   -1.000
 4214.00    1.00592   1.08080   -1.000
 4215.00    0.97381   1.07659   -1.000
 4216.00    0.99504   1.09909   -1.000
 4217.00    1.06641   1.14291   -1.000
 4218.00    1.13210   1.18836   -1.000
 4219.00    1.19229   1.21720   -1.000
 4220.00    1.22193   1.21755  162.569
 4221.00    1.20589   1.18536   -1.000
 4222.00    1.14545   1.12124   -1.000
 4223.00    1.05232   1.03396   -1.000
 4224.00    0.94910   0.94006  216.704
 4225.00    0.83237   0.86774   -1.000
 4226.00    0.73165   0.84246   -1.000
 4227.00    0.73694   0.87587   -1.000
 4228.00    0.85393   0.95279   -1.000
 4229.00    1.00974   1.04199   -1.000
 4230.00    1.11092   1.10982  160.324
 4231.00    1.13491   1.14133  162.923
 4232.00    1.12692   1.14035   -1.000
 4233.00    1.11250   1.12112  169.275
 4234.00    1.08717   1.09863  169.614
 4235.00    1.05359   1.08396   -1.000
 4236.00    1.03562   1.08183   -1.000
 4237.00    1.03065   1.09248   -1.000
 4238.00    1.06804   1.11366   -1.000
 4239.00    1.10543   1.14179   -1.000
 4240.00    1.10779   1.17285   -1.000
 4241.00    1.14797   1.20492   -1.000
 4242.00    1.17926   1.23529   -1.000
 4243.00    1.20012   1.25945   -1.000
 4244.00    1.22681   1.26991   -1.000
 4245.00    1.23672   1.25931   -1.000
 4246.00    1.21834   1.22612  170.870
 4247.00    1.16350   1.17975   -1.000
 4248.00    1.09787   1.13416   -1.000
 4249.00    1.04732   1.10327   -1.000
 4250.00    1.03193   1.09108   -1.000
 4251.00    1.04749   1.09210   -1.000
 4252.00    1.06819   1.09650   -1.000
 4253.00    1.06158   1.09991   -1.000
 4254.00    1.05514   1.10678   -1.000
 4255.00    1.07342   1.12037   -1.000
 4256.00    1.12841   1.13417  168.884
 4257.00    1.15752   1.13462   -1.000
 4258.00    1.12514   1.11696  172.425
 4259.00    1.05377   1.09633   -1.000
 4260.00    0.99676   1.09512   -1.000
 4261.00    1.02283   1.12712   -1.000
 4262.00    1.11688   1.18363   -1.000
 4263.00    1.19262   1.24336   -1.000
 4264.00    1.24694   1.28417   -1.000
 4265.00    1.29277   1.29544  158.485
 4266.00    1.28371   1.27634  164.129
 4267.00    1.22312   1.23146  173.390
 4268.00    1.15456   1.16651  184.519
 4269.00    1.09008   1.09319  189.796
 4270.00    0.99945   1.02436   -1.000
 4271.00    0.90728   0.97603   -1.000
 4272.00    0.88025   0.95816   -1.000
 4273.00    0.90994   0.97312   -1.000
 4274.00    0.94846   1.01544   -1.000
 4275.00    0.99048   1.07563   -1.000
 4276.00    1.06334   1.13803   -1.000
 4277.00    1.15508   1.18702   -1.000
 4278.00    1.20600   1.21048  167.218
 4279.00    1.20107   1.21022  165.695
 4280.00    1.14940   1.19859   -1.000
 4281.00    1.11282   1.18820   -1.000
 4282.00    1.12677   1.18298   -1.000
 4283.00    1.14473   1.17792   -1.000
 4284.00    1.15147   1.16820   -1.000
 4285.00    1.13367   1.15121   -1.000
 4286.00    1.09312   1.12690   -1.000
 4287.00    1.06153   1.09523   -1.000
 4288.00    1.02760   1.06099   -1.000
 4289.00    0.97820   1.03518   -1.000
 4290.00    0.95849   1.03020   -1.000
 4291.00    0.99250   1.04768   -1.000
 4292.00    1.05454   1.07630   -1.000
 4293.00    1.09799   1.09809  175.999
 4294.00    1.09476   1.10199  183.280
 4295.00    1.07810   1.08450  197.063
 4296.00    1.06360   1.04820   -1.000
 4297.00    1.02105   0.99745   -1.000
 4298.00    0.95136   0.94339  216.072
 4299.00    0.87495   0.89915   -1.000
 4300.00    0.83184   0.87543   -1.000
 4301.00    0.84546   0.87214   -1.000
 4302.00    0.86404   0.88024   -1.000
 4303.00    0.87353   0.88735  210.631
 4304.00    0.88388   0.88402  220.838
 4305.00    0.88528   0.86730   -1.000
 4306.00    0.86709   0.84174   -1.000
 4307.00    0.82525   0.82038  217.120
 4308.00    0.77198   0.81769   -1.000
 4309.00    0.76672   0.84269   -1.000
 4310.00    0.83560   0.89357   -1.000
 4311.00    0.91372   0.96328   -1.000
 4312.00    0.98651   1.04524   -1.000
 4313.00    1.05465   1.13489   -1.000
 4314.00    1.12325   1.23108   -1.000
 4315.00    1.22804   1.32369   -1.000
 4316.00    1.35146   1.40048   -1.000
 4317.00    1.41656   1.44708   -1.000
 4318.00    1.43052   1.45823   -1.000
 4319.00    1.42909   1.43707  154.780
 4320.00    1.38298   1.39074  165.070
 4321.00    1.32864   1.32204  179.208
 4322.00    1.27221   1.23758   -1.000
 4323.00    1.16292   1.15175  182.936
 4324.00    1.04141   1.09113   -1.000
 4325.00    0.95756   1.08033   -1.000
 4326.00    0.98376   1.12757   -1.000
 4327.00    1.13344   1.21253   -1.000
 4328.00    1.27402   1.30351   -1.000
 4329.00    1.36432   1.37203  143.740
 4330.00    1.38298   1.41195   -1.000
 4331.00    1.37306   1.43293   -1.000
 4332.00    1.36955   1.44545   -1.000
 4333.00    1.38922   1.44971   -1.000
 4334.00    1.41160   1.43485   -1.000
 4335.00    1.41400   1.39031   -1.000
 4336.00    1.34950   1.31352   -1.000
 4337.00    1.23634   1.22074   -1.000
 4338.00    1.12269   1.13657  192.920
 4339.00    1.04220   1.08881   -1.000
 4340.00    1.00845   1.08930   -1.000
 4341.00    1.05221   1.13281   -1.000
 4342.00    1.15243   1.19995   -1.000
 4343.00    1.24977   1.27103   -1.000
 4344.00    1.29645   1.33164   -1.000
 4345.00    1.33015   1.37925   -1.000
 4346.00    1.35946   1.41497   -1.000
 4347.00    1.37620   1.43687   -1.000
 4348.00    1.42955   1.43766  160.329
 4349.00    1.42902   1.41191  165.544
 4350.00    1.34273   1.36468   -1.000
 4351.00    1.22800   1.31768   -1.000
 4352.00    1.16033   1.29336   -1.000
 4353.00    1.19934   1.30280   -1.000
 4354.00    1.29068   1.33620   -1.000
 4355.00    1.34989   1.37516   -1.000
 4356.00    1.37236   1.40332   -1.000
 4357.00    1.38615   1.41664   -1.000
 4358.00    1.37840   1.42192   -1.000
 4359.00    1.36236   1.42999   -1.000
 4360.00    1.37822   1.44850   -1.000
 4361.00    1.42594   1.47548   -1.000
 4362.00    1.44592   1.50397   -1.000
 4363.00    1.47633   1.52511   -1.000
 4364.00    1.49670   1.53205   -1.000
 4365.00    1.50234   1.52079   -1.000
 4366.00    1.46907   1.49393   -1.000
 4367.00    1.38454   1.46045   -1.000
 4368.00    1.34123   1.43213   -1.000
 4369.00    1.34828   1.41276   -1.000
 4370.00    1.35401   1.39694   -1.000
 4371.00    1.36974   1.37598  158.819
 4372.00    1.35747   1.34567  160.616
 4373.00    1.30718   1.31327  155.626
 4374.00    1.25226   1.29234   -1.000
 4375.00    1.22672   1.29555   -1.000
 4376.00    1.27983   1.32105   -1.000
 4377.00    1.36584   1.35326  146.298
 4378.00    1.41067   1.36780   -1.000
 4379.00    1.40626   1.34676   -1.000
 4380.00    1.38045   1.28486   -1.000
 4381.00    1.29957   1.19500   -1.000
 4382.00    1.15161   1.10443   -1.000
 4383.00    0.98935   1.04753   -1.000
 4384.00    0.92656   1.04519   -1.000
 4385.00    1.02799   1.09189   -1.000
 4386.00    1.16978   1.16040  154.518
 4387.00    1.26029   1.21976   -1.000
 4388.00    1.28411   1.25590   -1.000
 4389.00    1.26732   1.27384  149.812
 4390.00    1.26499   1.28577   -1.000
 4391.00    1.26694   1.29936   -1.000
 4392.00    1.30890   1.31551  153.002
 4393.00    1.33883   1.33366  147.493
 4394.00    1.32347   1.35632   -1.000
 4395.00    1.33824   1.38446   -1.000
 4396.00    1.40441   1.41314  147.502
 4397.00    1.46995   1.43009   -1.000
 4398.00    1.48250   1.42764   -1.000
 4399.00    1.41402   1.40692  149.398
 4400.00    1.35659   1.37679   -1.000
 4401.00    1.34994   1.34027  160.814
 4402.00    1.33953   1.29687   -1.000
 4403.00    1.26628   1.24927  160.252
 4404.00    1.15976   1.21054   -1.000
 4405.00    1.11473   1.19618   -1.000
 4406.00    1.16253   1.21403   -1.000
 4407.00    1.21562   1.25810   -1.000
 4408.00    1.24916   1.31929   -1.000
 4409.00    1.31785   1.38616   -1.000
 4410.00    1.40945   1.44457   -1.000
 4411.00    1.47977   1.47758  146.179
 4412.00    1.50070   1.47425   -1.000
 4413.00    1.46033   1.44011  152.970
 4414.00    1.36594   1.39926   -1.000
 4415.00    1.28222   1.37771   -1.000
 4416.00    1.27700   1.39136   -1.000
 4417.00    1.34366   1.43299   -1.000
 4418.00    1.41690   1.48108   -1.000
 4419.00    1.47075   1.51133   -1.000
 4420.00    1.47130   1.51404   -1.000
 4421.00    1.40914   1.49536   -1.000
 4422.00    1.36039   1.47184   -1.000
 4423.00    1.34098   1.45715   -1.000
 4424.00    1.34982   1.45565   -1.000
 4425.00    1.37500   1.46300   -1.000
 4426.00    1.39097   1.47239   -1.000
 4427.00    1.38837   1.47902   -1.000
 4428.00    1.39614   1.48041   -1.000
 4429.00    1.39320   1.47614   -1.000
 4430.00    1.37983   1.46787   -1.000
 4431.00    1.38906   1.45541   -1.000
 4432.00    1.40672   1.43763   -1.000
 4433.00    1.37786   1.41664   -1.000
 4434.00    1.31814   1.40236   -1.000
 4435.00    1.28628   1.41137   -1.000
 4436.00    1.33642   1.44751   -1.000
 4437.00    1.41990   1.49935   -1.000
 4438.00    1.52317   1.53988  142.859
 4439.00    1.58192   1.55065   -1.000
 4440.00    1.54340   1.53047  150.961
 4441.00    1.45395   1.49882   -1.000
 4442.00    1.38614   1.48084   -1.000
 4443.00    1.39180   1.49129   -1.000
 4444.00    1.45432   1.52727   -1.000
 4445.00    1.52115   1.57105   -1.000
 4446.00    1.57393   1.60607   -1.000
 4447.00    1.58845   1.62483   -1.000
 4448.00    1.58976   1.62903   -1.000
 4449.00    1.58036   1.62287   -1.000
 4450.00    1.56343   1.60663   -1.000
 4451.00    1.56726   1.57886  150.029
 4452.00    1.55906   1.53752   -1.000
 4453.00    1.49837   1.48825  152.581
 4454.00    1.41480   1.44044   -1.000
 4455.00    1.35820   1.40653   -1.000
 4456.00    1.36426   1.38970   -1.000
 4457.00    1.36824   1.38455   -1.000
 4458.00    1.38860   1.38287  152.807
 4459.00    1.36182   1.38191   -1.000
 4460.00    1.34231   1.38694   -1.000
 4461.00    1.33872   1.40483   -1.000
 4462.00    1.38051   1.43706   -1.000
 4463.00    1.42983   1.47636   -1.000
 4464.00    1.49617   1.51077  141.874
 4465.00    1.51961   1.53143  144.419
 4466.00    1.52871   1.53762  145.714
 4467.00    1.51971   1.53563  144.242
 4468.00    1.47970   1.53472   -1.000
 4469.00    1.46005   1.54389   -1.000
 4470.00    1.49203   1.56712   -1.000
 4471.00    1.53668   1.60332   -1.000
 4472.00    1.60092   1.64389   -1.000
 4473.00    1.63860   1.68126   -1.000
 4474.00    1.65868   1.71105   -1.000
 4475.00    1.68624   1.73200   -1.000
 4476.00    1.72329   1.74094  133.021
 4477.00    1.74616   1.73093  138.923
 4478.00    1.72734   1.69781   -1.000
 4479.00    1.66687   1.64994  142.855
 4480.00    1.58171   1.60690   -1.000
 4481.00    1.51585   1.59148   -1.000
 4482.00    1.52389   1.61153   -1.000
 4483.00    1.59144   1.65883   -1.000
 4484.00    1.67388   1.70925   -1.000
 4485.00    1.73735   1.74116  135.706
 4486.00    1.75910   1.74084  139.295
 4487.00    1.72838   1.71355  138.664
 4488.00    1.64427   1.67549   -1.000
 4489.00    1.56375   1.64744   -1.000
 4490.00    1.53823   1.63800   -1.000
 4491.00    1.57151   1.63991   -1.000
 4492.00    1.62850   1.63937  141.077
 4493.00    1.62136   1.62823  140.392
 4494.00    1.53662   1.61452   -1.000
 4495.00    1.49093   1.61203   -1.000
 4496.00    1.51301   1.62934   -1.000
 4497.00    1.56228   1.66150   -1.000
 4498.00    1.63790   1.69528   -1.000
 4499.00    1.69132   1.72109   -1.000
 4500.00    1.68344   1.73914   -1.000
 4501.00    1.65804   1.75741   -1.000
 4502.00    1.70445   1.78295   -1.000
 4503.00    1.80295   1.81417  125.154
 4504.00    1.86044   1.84254  126.658
 4505.00    1.87109   1.85859  126.949
 4506.00    1.83915   1.86001  126.153
 4507.00    1.80662   1.85265   -1.000
 4508.00    1.78873   1.84438   -1.000
 4509.00    1.80185   1.83797   -1.000
 4510.00    1.83681   1.82994  130.590
 4511.00    1.81761   1.81528  131.676
 4512.00    1.75861   1.79310   -1.000
 4513.00    1.70907   1.76831   -1.000
 4514.00    1.69315   1.74788   -1.000
 4515.00    1.69683   1.73598   -1.000
 4516.00    1.70733   1.73285   -1.000
 4517.00    1.71353   1.73721   -1.000
 4518.00    1.70683   1.74804   -1.000
 4519.00    1.72402   1.76344   -1.000
 4520.00    1.77179   1.77743  134.272
 4521.00    1.80034   1.78151  135.692
 4522.00    1.77032   1.76916  137.758
 4523.00    1.71613   1.73953   -1.000
 4524.00    1.69015   1.69616  145.774
 4525.00    1.64176   1.64423  147.931
 4526.00    1.56062   1.59004   -1.000
 4527.00    1.50506   1.54237   -1.000
 4528.00    1.45964   1.51116   -1.000
 4529.00    1.45761   1.50201   -1.000
 4530.00    1.48280   1.51260   -1.000
 4531.00    1.52941   1.53297  149.295
 4532.00    1.55737   1.55224  148.531
 4533.00    1.56142   1.56618  141.011
 4534.00    1.50761   1.58035   -1.000
 4535.00    1.49749   1.60502   -1.000
 4536.00    1.57972   1.64436   -1.000
 4537.00    1.69433   1.69037  131.746
 4538.00    1.76783   1.72761   -1.000
 4539.00    1.74883   1.74542  131.310
 4540.00    1.70274   1.74585   -1.000
 4541.00    1.70547   1.73913   -1.000
 4542.00    1.68345   1.73403   -2.000
 4543.00    0.59687   1.73111   -2.000
 4544.00    0.01081   1.72680   -2.000
 4545.00    0.02986   1.71846   -1.000
 4546.00    1.07568   1.70715   -1.000
 4547.00    0.62119   1.69556   -1.000
 4548.00    1.06977   1.68607   -1.000
 4549.00    1.61090   1.68112   -1.000
 4550.00    1.64895   1.68127   -1.000
 4551.00    1.66004   1.68414   -1.000
 4552.00    1.68711   1.68564  138.650
 4553.00    1.67573   1.68566  133.989
 4554.00    1.66563   1.69066   -1.000
 4555.00    1.66391   1.70906   -1.000
 4556.00    1.70721   1.74363   -1.000
 4557.00    1.80745   1.78747  126.258
 4558.00    1.86303   1.82858   -1.000
 4559.00    1.86836   1.85619  128.776
 4560.00    1.86948   1.86607  131.999
 4561.00    1.86229   1.85806  134.425
 4562.00    1.85396   1.83615  133.506
 4563.00    1.80093   1.80717  130.355
 4564.00    1.73670   1.78302   -1.000
 4565.00    1.71247   1.77473   -1.000
 4566.00    1.75264   1.78664   -1.000
 4567.00    1.83598   1.81056   -1.000
 4568.00    1.88392   1.83205   -1.000
 4569.00    1.88228   1.83933   -1.000
 4570.00    1.81695   1.83294  128.776
 4571.00    1.74568   1.82326   -1.000
 4572.00    1.76753   1.82192   -1.000
 4573.00    1.82922   1.83237  126.956
 4574.00    1.86251   1.84769  127.677
 4575.00    1.86952   1.85716  129.659
 4576.00    1.84821   1.85278  133.331
 4577.00    1.82355   1.83286  136.292
 4578.00    1.81496   1.80085  136.359
 4579.00    1.75880   1.76534  134.616
 4580.00    1.68172   1.73655   -1.000
 4581.00    1.68454   1.72200   -1.000
 4582.00    1.72650   1.72117  134.485
 4583.00    1.76375   1.72772   -1.000
 4584.00    1.74971   1.73597  129.702
 4585.00    1.71608   1.74655   -1.000
 4586.00    1.73944   1.76407   -1.000
 4587.00    1.78444   1.78988  127.900
 4588.00    1.84292   1.81720   -1.000
 4589.00    1.88689   1.83507   -1.000
 4590.00    1.85325   1.83577  132.984
 4591.00    1.80905   1.82022  131.997
 4592.00    1.75932   1.79620   -1.000
 4593.00    1.72671   1.77310   -1.000
 4594.00    1.71487   1.75673   -1.000
 4595.00    1.73340   1.74917  129.927
 4596.00    1.73537   1.74938  130.883
 4597.00    1.73411   1.75527  132.074
 4598.00    1.76784   1.76352  132.552
 4599.00    1.78160   1.77102  131.365
 4600.00    1.77365   1.77604  129.881
 4601.00    1.75865   1.77884  129.880
 4602.00    1.76165   1.78078  129.734
 4603.00    1.77646   1.78375  128.467
 4604.00    1.79510   1.79095  126.052
 4605.00    1.77898   1.80705   -1.000
 4606.00    1.78935   1.83534   -1.000
 4607.00    1.87974   1.87357  122.063
 4608.00    1.97306   1.91212   -1.000
 4609.00    2.00592   1.93917   -1.000
 4610.00    1.98130   1.94737   -1.000
 4611.00    1.94739   1.93985  125.481
 4612.00    1.91533   1.92650  124.407
 4613.00    1.90042   1.91799  123.830
 4614.00    1.91796   1.91906  124.507
 4615.00    1.94904   1.92808  125.436
 4616.00    1.96973   1.93959   -1.000
 4617.00    1.96487   1.94894  124.358
 4618.00    1.94534   1.95455  122.455
 4619.00    1.94051   1.95773  122.189
 4620.00    1.95211   1.96037  122.474
 4621.00    1.95937   1.96278  122.726
 4622.00    1.97475   1.96330  123.756
 4623.00    1.96647   1.96039  124.163
 4624.00    1.95544   1.95440  124.132
 4625.00    1.94885   1.94752  124.837
 4626.00    1.94205   1.94218  125.173
 4627.00    1.93956   1.94013  124.638
 4628.00    1.93330   1.94179  123.274
 4629.00    1.92470   1.94601  123.601
 4630.00    1.94113   1.94991  125.295
 4631.00    1.97129   1.94954  126.740
 4632.00    1.97239   1.94171   -1.000
 4633.00    1.92583   1.92646  127.680
 4634.00    1.88083   1.90673   -1.000
 4635.00    1.87794   1.88571  129.982
 4636.00    1.87390   1.86458  129.864
 4637.00    1.83302   1.84448  127.857
 4638.00    1.79832   1.82843   -1.000
 4639.00    1.79387   1.82084   -1.000
 4640.00    1.80163   1.82337  123.225
 4641.00    1.85363   1.83201  125.363
 4642.00    1.89877   1.83736   -1.000
 4643.00    1.88464   1.83010   -1.000
 4644.00    1.85968   1.80657   -1.000
 4645.00    1.78886   1.77281  131.167
 4646.00    1.71303   1.74156   -1.000
 4647.00    1.68094   1.72692   -1.000
 4648.00    1.71819   1.73658  125.901
 4649.00    1.78421   1.76782  125.654
 4650.00    1.82464   1.80903  126.984
 4651.00    1.88110   1.84586   -1.000
 4652.00    1.92328   1.86776   -1.000
 4653.00    1.91961   1.87266   -1.000
 4654.00    1.87154   1.86756  126.667
 4655.00    1.80615   1.86544   -1.000
 4656.00    1.82284   1.87839   -1.000
 4657.00    1.88432   1.90954   -1.000
 4658.00    1.97455   1.95104  119.944
 4659.00    2.05438   1.98665   -1.000
 4660.00    2.05865   2.00165   -1.000
 4661.00    2.00217   1.98951  125.751
 4662.00    1.95977   1.95415  127.650
 4663.00    1.89338   1.90397  132.876
 4664.00    1.84823   1.84726  138.470
 4665.00    1.81061   1.78985   -1.000
 4666.00    1.73745   1.73991  135.142
 4667.00    1.65798   1.70874   -1.000
 4668.00    1.61597   1.70667   -1.000
 4669.00    1.69311   1.73442   -1.000
 4670.00    1.81285   1.78065   -1.000
 4671.00    1.89345   1.82783   -1.000
 4672.00    1.93075   1.86390   -1.000
 4673.00    1.89655   1.88623  121.503
 4674.00    1.89576   1.90001  121.921
 4675.00    1.91597   1.90846  124.437
 4676.00    1.93460   1.91053   -1.000
 4677.00    1.94657   1.90195   -1.000
 4678.00    1.90871   1.88210   -1.000
 4679.00    1.85226   1.85669  128.966
 4680.00    1.81718   1.83508  125.799
 4681.00    1.80652   1.82572  124.028
 4682.00    1.82219   1.83094  124.311
 4683.00    1.86015   1.84655  124.399
 4684.00    1.90574   1.86416   -1.000
 4685.00    1.92620   1.87621   -1.000
 4686.00    1.91516   1.87991   -1.000
 4687.00    1.89911   1.87680  125.975
 4688.00    1.89657   1.87119   -1.000
 4689.00    1.90747   1.86625   -1.000
 4690.00    1.91079   1.86420   -1.000
 4691.00    1.89220   1.86616   -1.000
 4692.00    1.89620   1.87345  118.741
 4693.00    1.91700   1.88591   -1.000
 4694.00    1.96267   1.90030   -1.000
 4695.00    2.02206   1.90986   -1.000
 4696.00    2.02327   1.90745   -1.000
 4697.00    1.95915   1.89001   -1.000
 4698.00    1.89311   1.86142   -1.000
 4699.00    1.85532   1.83016   -1.000
 4700.00    1.84557   1.80475   -1.000
 4701.00    1.86083   1.78954   -1.000
 4702.00    1.83870   1.78599   -1.000
 4703.00    1.83982   1.79210   -1.000
 4704.00    1.86873   1.80370   -1.000
 4705.00    1.90099   1.81397   -1.000
 4706.00    1.92003   1.81830   -1.000
 4707.00    1.88460   1.81770   -1.000
 4708.00    1.82671   1.81847  124.103
 4709.00    1.81423   1.82645  122.754
 4710.00    1.87319   1.84179   -1.000
 4711.00    1.91580   1.85869   -1.000
 4712.00    1.94387   1.87087   -1.000
 4713.00    1.93103   1.87779   -1.000
 4714.00    1.88080   1.88574  121.459
 4715.00    1.88341   1.90299  120.627
 4716.00    1.94176   1.93257  120.191
 4717.00    2.01169   1.97001   -1.000
 4718.00    2.05545   2.00664   -1.000
 4719.00    2.06099   2.03472   -1.000
 4720.00    2.07837   2.05096   -1.000
 4721.00    2.06912   2.05649  119.675
 4722.00    2.01981   2.05534   -1.000
 4723.00    2.02510   2.05017   -1.000
 4724.00    2.03730   2.03881  127.205
 4725.00    2.07526   2.01483   -1.000
 4726.00    2.02051   1.97499   -1.000
 4727.00    1.91226   1.92445  128.517
 4728.00    1.82372   1.87724   -1.000
 4729.00    1.80878   1.84818   -1.000
 4730.00    1.83782   1.84384  124.858
 4731.00    1.86511   1.86088  124.135
 4732.00    1.92871   1.88805   -1.000
 4733.00    1.95477   1.91474   -1.000
 4734.00    1.98251   1.93424   -1.000
 4735.00    2.00032   1.94643   -1.000
 4736.00    1.95953   1.95543  123.334
 4737.00    1.95748   1.96527  124.038
 4738.00    2.01105   1.97724   -1.000
 4739.00    2.04377   1.98902   -1.000
 4740.00    2.03534   1.99802   -1.000
 4741.00    2.00982   2.00420  122.114
 4742.00    2.03260   2.00999  122.233
 4743.00    2.06137   2.01766   -1.000
 4744.00    2.07442   2.02855   -1.000
 4745.00    2.06683   2.04276  119.840
 4746.00    2.05628   2.05906  120.014
 4747.00    2.06616   2.07541  120.098
 4748.00    2.08147   2.08866  120.950
 4749.00    2.08618   2.09596  122.317
 4750.00    2.08086   2.09496  123.357
 4751.00    2.06831   2.08464  124.207
 4752.00    2.03436   2.06643   -1.000
 4753.00    1.99722   2.04484   -1.000
 4754.00    1.98663   2.02580   -1.000
 4755.00    2.00524   2.01458  125.557
 4756.00    2.00021   2.01322  124.539
 4757.00    1.96240   2.02021   -1.000
 4758.00    1.97500   2.03100   -1.000
 4759.00    1.98785   2.03835   -1.000
 4760.00    1.97933   2.03532   -1.000
 4761.00    1.97399   2.01802   -1.000
 4762.00    1.91659   1.98874   -1.000
 4763.00    1.89231   1.95449   -1.000
 4764.00    1.87497   1.92421   -1.000
 4765.00    1.83303   1.90544   -1.000
 4766.00    1.82450   1.90413   -1.000
 4767.00    1.85842   1.92276   -1.000
 4768.00    1.90864   1.95744   -1.000
 4769.00    1.96711   1.99675   -1.000
 4770.00    2.01645   2.02919  124.550
 4771.00    2.00963   2.04996   -1.000
 4772.00    1.96852   2.06460   -1.000
 4773.00    2.01927   2.08189   -1.000
 4774.00    2.09189   2.10501  121.464
 4775.00    2.08289   2.13079   -1.000
 4776.00    2.08967   2.15180   -1.000
 4777.00    2.07021   2.16368   -1.000
 4778.00    2.07482   2.16468   -1.000
 4779.00    2.05057   2.15542   -1.000
 4780.00    2.04319   2.13759   -1.000
 4781.00    2.05480   2.11384   -1.000
 4782.00    2.02377   2.08767   -1.000
 4783.00    1.97454   2.06321   -1.000
 4784.00    1.96692   2.04442   -1.000
 4785.00    1.94175   2.03229   -1.000
 4786.00    1.96570   2.02571   -1.000
 4787.00    1.96354   2.02307   -1.000
 4788.00    1.96781   2.02406   -1.000
 4789.00    1.98419   2.03044   -1.000
 4790.00    1.97741   2.04562   -1.000
 4791.00    2.00625   2.07280   -1.000
 4792.00    2.04209   2.11218   -1.000
 4793.00    2.11096   2.15770   -1.000
 4794.00    2.15538   2.19872   -1.000
 4795.00    2.20080   2.22310  124.374
 4796.00    2.20255   2.22410  125.856
 4797.00    2.14139   2.20384   -1.000
 4798.00    2.06874   2.17376   -1.000
 4799.00    2.02359   2.14866   -1.000
 4800.00    2.02862   2.14009   -1.000
 4801.00    2.09412   2.14964   -1.000
 4802.00    2.16035   2.16841  123.834
 4803.00    2.15836   2.18222  124.962
 4804.00    2.13142   2.18076   -1.000
 4805.00    2.07307   2.16418   -1.000
 4806.00    2.02700   2.14080   -1.000
 4807.00    2.01798   2.12196   -1.000
 4808.00    1.99666   2.11473   -1.000
 4809.00    2.01744   2.12036   -1.000
 4810.00    2.05551   2.13429   -1.000
 4811.00    2.10185   2.15048   -1.000
 4812.00    2.10624   2.16435   -1.000
 4813.00    2.08902   2.17583   -1.000
 4814.00    2.05006   2.18757   -1.000
 4815.00    2.10279   2.20239   -1.000
 4816.00    2.16287   2.22110   -1.000
 4817.00    2.20361   2.24135   -1.000
 4818.00    2.23372   2.25850   -1.000
 4819.00    2.22663   2.26658   -1.000
 4820.00    2.20429   2.26027   -1.000
 4821.00    2.20394   2.23800   -1.000
 4822.00    2.12014   2.20446   -1.000
 4823.00    2.04677   2.17041   -1.000
 4824.00    2.04030   2.14765   -1.000
 4825.00    2.07757   2.14181   -1.000
 4826.00    2.14438   2.14865  123.477
 4827.00    2.14487   2.15713  123.432
 4828.00    2.09823   2.15933   -1.000
 4829.00    2.10695   2.15295   -1.000
 4830.00    2.09850   2.14136   -1.000
 4831.00    2.05178   2.13001   -1.000
 4832.00    2.03034   2.12486   -1.000
 4833.00    2.04513   2.13000   -1.000
 4834.00    2.12699   2.14427  121.498
 4835.00    2.13685   2.16166   -1.000
 4836.00    2.12354   2.17274   -1.000
 4837.00    2.14356   2.17200   -1.000
 4838.00    2.13072   2.15896   -1.000
 4839.00    2.07878   2.13916   -1.000
 4840.00    2.04424   2.12050   -1.000
 4841.00    2.05371   2.10916   -1.000
 4842.00    2.04687   2.10829   -1.000
 4843.00    2.04521   2.11794   -1.000
 4844.00    2.08153   2.13592   -1.000
 4845.00    2.14339   2.15665  124.148
 4846.00    2.18963   2.17227  124.092
 4847.00    2.15380   2.17763  122.301
 4848.00    2.09662   2.17358   -1.000
 4849.00    2.08435   2.16732   -1.000
 4850.00    2.10443   2.16354   -1.000
 4851.00    2.15042   2.16009  127.626
 4852.00    2.15335   2.14925  131.252
 4853.00    2.11200   2.12438  130.848
 4854.00    2.04611   2.08727   -1.000
 4855.00    1.95902   2.04551   -1.000
 4856.00    1.94259   2.00657   -1.000
 4857.00    1.97612   1.96674  162.282
 4858.00    1.96509   1.91574   -1.000
 4859.00    1.86631   1.84702   -1.000
 4860.00    1.70570   1.77117   -1.000
 4861.00    1.59576   1.71639   -1.000
 4862.00    1.63709   1.70636   -1.000
 4863.00    1.74183   1.74807  128.756
 4864.00    1.86555   1.82299   -1.000
 4865.00    1.92888   1.90568   -1.000
 4866.00    1.97179   1.97401  128.257
 4867.00    1.98632   2.01658   -1.000
 4868.00    2.04018   2.02991  135.208
 4869.00    2.00410   2.01618  133.908
 4870.00    1.94738   1.98435   -1.000
 4871.00    1.83869   1.95161   -1.000
 4872.00    1.82553   1.93620   -1.000
 4873.00    1.87264   1.94975   -1.000
 4874.00    1.94408   1.98704   -1.000
 4875.00    1.98676   2.03529   -1.000
 4876.00    1.98935   2.08256   -1.000
 4877.00    2.02524   2.12268   -1.000
 4878.00    2.08791   2.15475   -1.000
 4879.00    2.12585   2.17646   -1.000
 4880.00    2.11596   2.18521   -1.000
 4881.00    2.07551   2.17954   -1.000
 4882.00    2.02278   2.16243   -1.000
 4883.00    2.06167   2.13846   -1.000
 4884.00    2.05951   2.11040   -1.000
 4885.00    2.00433   2.08077   -1.000
 4886.00    1.94497   2.05298   -1.000
 4887.00    1.97664   2.02919   -1.000
 4888.00    1.99671   2.00823  132.429
 4889.00    1.96826   1.98999  126.926
 4890.00    1.91188   1.97947   -1.000
 4891.00    1.88897   1.99014   -1.000
 4892.00    1.95596   2.03448   -1.000
 4893.00    2.12718   2.11070  114.833
 4894.00    2.24095   2.20266   -1.000
 4895.00    2.28916   2.28375  117.727
 4896.00    2.32073   2.33689  120.531
 4897.00    2.35200   2.35655  121.795
 4898.00    2.32114   2.34954   -1.000
 4899.00    2.25487   2.32705   -1.000
 4900.00    2.22193   2.29961   -1.000
 4901.00    2.21143   2.27493   -1.000
 4902.00    2.21026   2.25776   -1.000
 4903.00    2.16940   2.25203   -1.000
 4904.00    2.17470   2.25832   -1.000
 4905.00    2.24516   2.27235   -1.000
 4906.00    2.30304   2.28279  125.636
 4907.00    2.32253   2.27609   -1.000
 4908.00    2.23485   2.24901  125.310
 4909.00    2.15183   2.20989   -1.000
 4910.00    2.10948   2.17651   -1.000
 4911.00    2.11834   2.16467   -1.000
 4912.00    2.19468   2.17883  118.755
 4913.00    2.20152   2.21095  119.431
 4914.00    2.25772   2.24372  123.805
 4915.00    2.30981   2.25747   -1.000
 4916.00    2.30934   2.23609   -1.000
 4917.00    2.24111   2.17409   -1.000
 4918.00    2.10295   2.08341   -1.000
 4919.00    1.93493   1.99257   -1.000
 4920.00    1.84630   1.93155   -1.000
 4921.00    1.91624   1.91971  126.749
 4922.00    2.04124   1.95182   -1.000
 4923.00    2.12246   2.00964   -1.000
 4924.00    2.15325   2.07286   -1.000
 4925.00    2.14627   2.13373  118.515
 4926.00    2.20132   2.19262  117.714
 4927.00    2.29310   2.25015   -1.000
 4928.00    2.34397   2.30246   -1.000
 4929.00    2.38093   2.34137   -1.000
 4930.00    2.38243   2.35830   -1.000
 4931.00    2.37678   2.34961   -1.000
 4932.00    2.32718   2.31993  123.844
 4933.00    2.22310   2.27976   -1.000
 4934.00    2.18085   2.24047   -1.000
 4935.00    2.22239   2.20650  131.145
 4936.00    2.24681   2.17438   -1.000
 4937.00    2.16104   2.14260  125.198
 4938.00    2.06717   2.11801   -1.000
 4939.00    2.05485   2.11592   -1.000
 4940.00    2.14900   2.14570  118.066
 4941.00    2.27407   2.20146   -1.000
 4942.00    2.33939   2.26559   -1.000
 4943.00    2.37727   2.31828   -1.000
 4944.00    2.40220   2.35113   -1.000
 4945.00    2.40424   2.36626   -1.000
 4946.00    2.39288   2.37351  116.427
 4947.00    2.38680   2.38160  115.968
 4948.00    2.42369   2.39414   -1.000
 4949.00    2.44679   2.40812   -1.000
 4950.00    2.43733   2.41813  118.839
 4951.00    2.45083   2.41914   -1.000
 4952.00    2.42947   2.40618   -1.000
 4953.00    2.36779   2.37587  130.278
 4954.00    2.32343   2.32391  135.184
 4955.00    2.26153   2.25215  131.989
 4956.00    2.13797   2.17341   -1.000
 4957.00    1.99507   2.11116   -1.000
 4958.00    1.96176   2.09260   -1.000
 4959.00    2.07999   2.12375   -1.000
 4960.00    2.22671   2.18761   -1.000
 4961.00    2.30791   2.25382   -1.000
 4962.00    2.31331   2.29490  125.276
 4963.00    2.28742   2.30273  126.800
 4964.00    2.25918   2.28224  126.761
 4965.00    2.20936   2.24767   -1.000
 4966.00    2.14522   2.21440   -1.000
 4967.00    2.12443   2.19384   -1.000
 4968.00    2.15505   2.19071   -1.000
 4969.00    2.17251   2.20487   -1.000
 4970.00    2.20826   2.23190  120.118
 4971.00    2.25536   2.26591  119.714
 4972.00    2.29345   2.30041  120.614
 4973.00    2.32896   2.32782  121.921
 4974.00    2.35289   2.34205  123.612
 4975.00    2.36098   2.34001   -1.000
 4976.00    2.30955   2.32167  127.165
 4977.00    2.26348   2.29015  129.103
 4978.00    2.20582   2.24952   -1.000
 4979.00    2.18372   2.20243  137.555
 4980.00    2.16491   2.14984  137.278
 4981.00    2.10090   2.09409  134.541
 4982.00    2.02436   2.04269  130.687
 4983.00    1.96475   2.00963   -1.000
 4984.00    1.98420   2.00759   -1.000
 4985.00    2.04062   2.03924  123.944
 4986.00    2.13761   2.09466   -1.000
 4987.00    2.24784   2.15463   -1.000
 4988.00    2.27969   2.20224   -1.000
 4989.00    2.26783   2.22834   -1.000
 4990.00    2.25744   2.23733  125.332
 4991.00    2.24214   2.23838  125.251
 4992.00    2.22332   2.24003  124.586
 4993.00    2.22590   2.24577  124.054
 4994.00    2.24306   2.25386  124.908
 4995.00    2.27964   2.26061  126.670
 4996.00    2.30944   2.26120   -1.000
 4997.00    2.28835   2.24895   -1.000
 4998.00    2.24761   2.22169   -1.000
 4999.00    2.18685   2.18326  129.396
 5000.00    2.13368   2.14255  128.735
 5001.00    2.10707   2.10929  130.767
 5002.00    2.12198   2.08492   -1.000
 5003.00    2.14297   2.06560   -1.000
 5004.00    2.12163   2.04613   -1.000
 5005.00    2.06880   2.02929   -1.000
 5006.00    2.04282   2.02413  125.989
 5007.00    2.05527   2.03905  127.884
 5008.00    2.14476   2.07078   -1.000
 5009.00    2.21212   2.10216   -1.000
 5010.00    2.22270   2.11488   -1.000
 5011.00    2.15435   2.09929   -1.000
 5012.00    2.06976   2.06249  135.481
 5013.00    1.99833   2.02154  132.821
 5014.00    1.98167   1.99431  132.370
 5015.00    2.00040   1.98836  132.296
 5016.00    2.05569   1.99943   -1.000
 5017.00    2.07833   2.01903   -1.000
 5018.00    2.07179   2.03891   -1.000
 5019.00    2.11301   2.05652   -1.000
 5020.00    2.14339   2.07143   -1.000
 5021.00    2.15173   2.08442   -1.000
 5022.00    2.12972   2.09901   -1.000
 5023.00    2.13128   2.11766  128.388
 5024.00    2.16820   2.13910   -1.000
 5025.00    2.20229   2.15850   -1.000
 5026.00    2.20920   2.17083   -1.000
 5027.00    2.20496   2.17843   -1.000
 5028.00    2.17811   2.19001  121.359
 5029.00    2.22400   2.21364  120.116
 5030.00    2.28341   2.25061   -1.000
 5031.00    2.33027   2.29225   -1.000
 5032.00    2.38158   2.32550   -1.000
 5033.00    2.39409   2.33737   -1.000
 5034.00    2.35927   2.32203   -1.000
 5035.00    2.27444   2.28313  133.922
 5036.00    2.20236   2.23097   -1.000
 5037.00    2.17117   2.17432  144.531
 5038.00    2.14897   2.11600   -1.000
 5039.00    2.08125   2.05981   -1.000
 5040.00    1.96840   2.01589   -1.000
 5041.00    1.93521   2.00365   -1.000
 5042.00    2.02160   2.03730  120.506
 5043.00    2.21485   2.11311   -1.000
 5044.00    1.42924   2.20824   -1.000
 5045.00    0.07343   2.28957   -1.000
 5046.00    0.04193   2.33290   -1.000
 5047.00    0.63031   2.33053   -1.000
 5048.00    1.98199   2.29362   -1.000
 5049.00    2.17720   2.24413   -1.000
 5050.00    2.14646   2.20527   -1.000
 5051.00    2.18496   2.19104  121.148
 5052.00    2.24122   2.20413   -1.000
 5053.00    2.29953   2.23882   -1.000
 5054.00    2.35617   2.28385   -1.000
 5055.00    2.40633   2.32778   -1.000
 5056.00    2.45183   2.36469   -1.000
 5057.00    2.42631   2.39365   -1.000
 5058.00    2.46921   2.41742   -1.000
 5059.00    2.48002   2.43828   -1.000
 5060.00    2.48985   2.45289   -1.000
 5061.00    2.50589   2.45407   -1.000
 5062.00    2.49588   2.43382   -1.000
 5063.00    2.40875   2.39099   -1.000
 5064.00    2.29727   2.33492   -1.000
 5065.00    2.23063   2.28193   -1.000
 5066.00    2.23383   2.24622  125.876
 5067.00    2.26594   2.23248   -1.000
 5068.00    2.26769   2.23651   -1.000
 5069.00    2.31117   2.24929   -1.000
 5070.00    2.34761   2.26215   -1.000
 5071.00    2.33495   2.26956   -1.000
 5072.00    2.31025   2.27150   -1.000
 5073.00    2.33029   2.27188   -1.000
 5074.00    2.36250   2.27350   -1.000
 5075.00    2.38406   2.27332   -1.000
 5076.00    2.37479   2.26465   -1.000
 5077.00    2.35249   2.24014   -1.000
 5078.00    2.29429   2.19901   -1.000
 5079.00    2.17260   2.15007   -1.000
 5080.00    2.07920   2.11051   -1.000
 5081.00    2.09522   2.09515  127.381
 5082.00    2.15396   2.10667   -1.000
 5083.00    2.20831   2.13928   -1.000
 5084.00    2.26643   2.18246   -1.000
 5085.00    2.31072   2.22707   -1.000
 5086.00    2.35982   2.26739   -1.000
 5087.00    2.37842   2.30075   -1.000
 5088.00    2.37959   2.32729   -1.000
 5089.00    2.39895   2.34968   -1.000
 5090.00    2.40228   2.37088   -1.000
 5091.00    2.44338   2.39249   -1.000
 5092.00    2.48716   2.41165   -1.000
 5093.00    2.51089   2.42109   -1.000
 5094.00    2.50410   2.41181   -1.000
 5095.00    2.45198   2.37959   -1.000
 5096.00    2.38218   2.32894   -1.000
 5097.00    2.30933   2.27279   -1.000
 5098.00    2.21684   2.22803  124.334
 5099.00    2.17298   2.20937   -1.000
 5100.00    2.23740   2.22071  124.500
 5101.00    2.32936   2.25200   -1.000
 5102.00    2.39404   2.28581   -1.000
 5103.00    2.38549   2.30551   -1.000
 5104.00    2.36361   2.30570   -1.000
 5105.00    2.34175   2.28913   -1.000
 5106.00    2.30099   2.26337   -1.000
 5107.00    2.25711   2.23719  128.411
 5108.00    2.25749   2.21798   -1.000
 5109.00    2.24496   2.21220   -1.000
 5110.00    2.27251   2.22322   -1.000
 5111.00    2.31854   2.24985   -1.000
 5112.00    2.36234   2.28679   -1.000
 5113.00    2.41411   2.32641   -1.000
 5114.00    2.45124   2.36423   -1.000
 5115.00    2.46565   2.39797   -1.000
 5116.00    2.49965   2.42565   -1.000
 5117.00    2.54414   2.44393   -1.000
 5118.00    2.54933   2.44781   -1.000
 5119.00    2.53352   2.43320   -1.000
 5120.00    2.47268   2.39939   -1.000
 5121.00    2.41791   2.35014   -1.000
 5122.00    2.34732   2.29326   -1.000
 5123.00    2.24529   2.23918  131.581
 5124.00    2.20518   2.19797  130.933
 5125.00    2.21358   2.17528   -1.000
 5126.00    2.24522   2.16983   -1.000
 5127.00    2.26796   2.17598   -1.000
 5128.00    2.27202   2.18931   -1.000
 5129.00    2.27548   2.20814   -1.000
 5130.00    2.29264   2.23259   -1.000
 5131.00    2.35773   2.26173   -1.000
 5132.00    2.41221   2.29181   -1.000
 5133.00    2.45435   2.31824   -1.000
 5134.00    2.47451   2.33570   -1.000
 5135.00    2.49608   2.33929   -1.000
 5136.00    2.46897   2.32628   -1.000
 5137.00    2.39682   2.29834   -1.000
 5138.00    2.31132   2.26536   -1.000
 5139.00    2.27139   2.23854   -1.000
 5140.00    2.29638   2.22271   -1.000
 5141.00    2.31830   2.21711   -1.000
 5142.00    2.30982   2.21713   -1.000
 5143.00    2.27430   2.21942   -1.000
 5144.00    2.27997   2.22194   -1.000
 5145.00    2.30772   2.22098   -1.000
 5146.00    2.28991   2.21614   -1.000
 5147.00    2.26270   2.21141   -1.000
 5148.00    2.25380   2.20956   -1.000
 5149.00    2.28323   2.21071   -1.000
 5150.00    2.30451   2.21146   -1.000
 5151.00    2.28804   2.20981   -1.000
 5152.00    2.27038   2.20895   -1.000
 5153.00    2.28988   2.21516   -1.000
 5154.00    2.29686   2.23469   -1.000
 5155.00    2.36977   2.26929   -1.000
 5156.00    2.45553   2.31416   -1.000
 5157.00    2.52329   2.35940   -1.000
 5158.00    2.56974   2.39476   -1.000
 5159.00    2.56143   2.41296   -1.000
 5160.00    2.53967   2.40981   -1.000
 5161.00    2.50477   2.38362   -1.000
 5162.00    2.46990   2.33313   -1.000
 5163.00    2.40854   2.25687   -1.000
 5164.00    2.29982   2.15625   -1.000
 5165.00    2.12865   2.03774   -1.000
 5166.00    1.87382   1.91575   -1.000
 5167.00    1.67847   1.81543   -1.000
 5168.00    1.65444   1.75521   -1.000
 5169.00    1.77046   1.73149   -1.000
 5170.00    1.88801   1.72561   -1.000
 5171.00    1.82685   1.71977   -1.000
 5172.00    1.66040   1.72266   -1.000
 5173.00    1.63849   1.75661   -1.000
 5174.00    1.83191   1.83545  127.890
 5175.00    2.09593   1.94873   -1.000
 5176.00    2.26728   2.06324   -1.000
 5177.00    2.31431   2.15012   -1.000
 5178.00    2.32988   2.19052   -1.000
 5179.00    2.31407   2.17691   -1.000
 5180.00    2.22840   2.11235   -1.000
 5181.00    2.07338   2.00818   -1.000
 5182.00    1.86191   1.89382   -1.000
 5183.00    1.66236   1.81146   -1.000
 5184.00    1.65071   1.79748   -1.000
 5185.00    1.88062   1.86186  127.948
 5186.00    2.16627   1.97718   -1.000
 5187.00    2.35435   2.10133   -1.000
 5188.00    2.42275   2.19695   -1.000
 5189.00    2.44738   2.24596   -1.000
 5190.00    2.44317   2.24956   -1.000
 5191.00    2.36279   2.22246   -1.000
 5192.00    2.24585   2.18747   -1.000
 5193.00    2.22679   2.16693   -1.000
 5194.00    2.31392   2.16987   -1.000
 5195.00    2.36037   2.19448   -1.000
 5196.00    2.39757   2.23550   -1.000
 5197.00    2.47396   2.28359   -1.000
 5198.00    2.49099   2.32980   -1.000
 5199.00    2.51988   2.36558   -1.000
 5200.00    2.54591   2.38232   -1.000
 5201.00    2.54921   2.37364   -1.000
 5202.00    2.49629   2.33763   -1.000
 5203.00    2.42451   2.27719   -1.000
 5204.00    2.32340   2.20153   -1.000
 5205.00    2.19247   2.12612   -1.000
 5206.00    2.13671   2.06689   -1.000
 5207.00    2.13573   2.03608   -1.000
 5208.00    2.12582   2.03927   -1.000
 5209.00    2.16878   2.07671   -1.000
 5210.00    2.28756   2.14295   -1.000
 5211.00    2.42874   2.22322   -1.000
 5212.00    2.54719   2.29802   -1.000
 5213.00    2.63165   2.34998   -1.000
 5214.00    2.63430   2.37190   -1.000
 5215.00    2.55719   2.37247   -1.000
 5216.00    2.50560   2.36989   -1.000
 5217.00    2.52337   2.38111   -1.000
 5218.00    2.60639   2.40991   -1.000
 5219.00    2.67181   2.44693   -1.000
 5220.00    2.69634   2.47605   -1.000
 5221.00    2.71630   2.48162   -1.000
 5222.00    2.68998   2.45429   -1.000
 5223.00    2.58541   2.39423   -1.000
 5224.00    2.48358   2.31298   -1.000
 5225.00    2.35476   2.23164   -1.000
 5226.00    2.24072   2.17640   -1.000
 5227.00    2.26021   2.16761   -1.000
 5228.00    2.39662   2.20613   -1.000
 5229.00    2.56978   2.27226   -1.000
 5230.00    2.67224   2.33522   -1.000
 5231.00    2.69328   2.37233   -1.000
 5232.00    2.64330   2.38238   -1.000
 5233.00    2.55380   2.38095   -1.000
 5234.00    2.51826   2.38957   -1.000
 5235.00    2.59679   2.41897   -1.000
 5236.00    2.69226   2.46494   -1.000
 5237.00    2.77351   2.51426   -1.000
 5238.00    2.79717   2.55294   -1.000
 5239.00    2.77533   2.57534   -1.000
 5240.00    2.75556   2.58387   -1.000
 5241.00    2.74955   2.58461   -1.000
 5242.00    2.75978   2.58274   -1.000
 5243.00    2.77122   2.57855   -1.000
 5244.00    2.79835   2.56696   -1.000
 5245.00    2.76968   2.54164   -1.000
 5246.00    2.68526   2.50199   -1.000
 5247.00    2.58458   2.45626   -1.000
 5248.00    2.55723   2.41636   -1.000
 5249.00    2.57990   2.39038   -1.000
 5250.00    2.57314   2.38090   -1.000
 5251.00    2.57126   2.38645   -1.000
 5252.00    2.60491   2.40167   -1.000
 5253.00    2.63779   2.42150   -1.000
 5254.00    2.63886   2.44597   -1.000
 5255.00    2.62790   2.47885   -1.000
 5256.00    2.68507   2.52213   -1.000
 5257.00    2.80814   2.56694   -1.000
 5258.00    2.86774   2.59564   -1.000
 5259.00    2.84629   2.59187   -1.000
 5260.00    2.78276   2.54671   -1.000
 5261.00    2.67254   2.46378   -1.000
 5262.00    2.53980   2.35842   -1.000
 5263.00    2.38403   2.25130   -1.000
 5264.00    2.28123   2.16081   -1.000
 5265.00    2.23399   2.09714   -1.000
 5266.00    2.24341   2.05966   -1.000
 5267.00    2.31368   2.03881   -1.000
 5268.00    2.31944   2.02512   -1.000
 5269.00    2.21612   2.02221   -1.000
 5270.00    2.17446   2.04340   -1.000
 5271.00    2.31366   2.09823   -1.000
 5272.00    2.52718   2.17837   -1.000
 5273.00    2.62431   2.26148   -1.000
 5274.00    2.63686   2.33552   -1.000
 5275.00    2.63356   2.40089   -1.000
 5276.00    2.70193   2.46159   -1.000
 5277.00    2.81707   2.51787   -1.000
 5278.00    2.90482   2.55914   -1.000
 5279.00    2.92410   2.57303   -1.000
 5280.00    2.86315   2.55729   -1.000
 5281.00    2.77215   2.52281   -1.000
 5282.00    2.67637   2.49000   -1.000
 5283.00    2.58569   2.48027   -1.000
 5284.00    2.68276   2.50526   -1.000
 5285.00    2.84250   2.56109   -1.000
 5286.00    2.95874   2.62952   -1.000
 5287.00    3.02908   2.69006   -1.000
 5288.00    3.01961   2.73312   -1.000
 5289.00    3.01341   2.75831   -1.000
 5290.00    3.03329   2.76954   -1.000
 5291.00    3.04748   2.76924   -1.000
 5292.00    3.03930   2.75572   -1.000
 5293.00    3.00317   2.72686   -1.000
 5294.00    2.93326   2.68080   -1.000
 5295.00    2.84949   2.61786   -1.000
 5296.00    2.75024   2.54682   -1.000
 5297.00    2.62607   2.48446   -1.000
 5298.00    2.58984   2.44877   -1.000
 5299.00    2.67431   2.44863   -1.000
 5300.00    2.77720   2.47879   -1.000
 5301.00    2.82882   2.52858   -1.000
 5302.00    2.86165   2.58869   -1.000
 5303.00    2.95473   2.65138   -1.000
 5304.00    3.04696   2.70897   -1.000
 5305.00    3.08714   2.75290   -1.000
 5306.00    3.07982   2.77991   -1.000
 5307.00    3.06102   2.79438   -1.000
 5308.00    3.07242   2.80324   -1.000
 5309.00    3.09835   2.81120   -1.000
 5310.00    3.10908   2.81673   -1.000
 5311.00    3.11293   2.81529   -1.000
 5312.00    3.09348   2.80480   -1.000
 5313.00    3.08697   2.78604   -1.000
 5314.00    3.05664   2.76263   -1.000
 5315.00    3.04077   2.73933   -1.000
 5316.00    3.00229   2.72011   -1.000
 5317.00    2.95771   2.70802   -1.000
 5318.00    2.98191   2.70238   -1.000
 5319.00    2.99780   2.69818   -1.000
 5320.00    2.99260   2.68939   -1.000
 5321.00    2.99169   2.67027   -1.000
 5322.00    2.94037   2.63615   -1.000
 5323.00    2.87180   2.58574   -1.000
 5324.00    2.80171   2.52162   -1.000
 5325.00    2.77917   2.44730   -1.000
 5326.00    2.73830   2.36884   -1.000
 5327.00    2.57846   2.30151   -1.000
 5328.00    2.42255   2.26802   -1.000
 5329.00    2.44871   2.28707   -1.000
 5330.00    2.64698   2.35524   -1.000
 5331.00    2.83600   2.44857   -1.000
 5332.00    2.91570   2.54209   -1.000
 5333.00    2.95183   2.62037   -1.000
 5334.00    3.00793   2.67774   -1.000
 5335.00    3.05463   2.71297   -1.000
 5336.00    3.06201   2.72356   -1.000
 5337.00    3.03975   2.70867   -1.000
 5338.00    2.99011   2.67210   -1.000
 5339.00    2.90287   2.62456   -1.000
 5340.00    2.80533   2.58405   -1.000
 5341.00    2.77981   2.56766   -1.000
 5342.00    2.85503   2.57781   -1.000
 5343.00    2.94790   2.60233   -1.000
 5344.00    2.98710   2.62542   -1.000
 5345.00    2.98052   2.63642   -1.000
 5346.00    2.96988   2.63401   -1.000
 5347.00    2.96058   2.62492   -1.000
 5348.00    2.94001   2.61898   -1.000
 5349.00    2.93136   2.62660   -1.000
 5350.00    2.98044   2.65338   -1.000
 5351.00    3.05013   2.69658   -1.000
 5352.00    3.11330   2.74827   -1.000
 5353.00    3.13558   2.79991   -1.000
 5354.00    3.16354   2.84581   -1.000
 5355.00    3.21413   2.88272   -1.000
 5356.00    3.24330   2.90740   -1.000
 5357.00    3.27005   2.91825   -1.000
 5358.00    3.25599   2.91577   -1.000
 5359.00    3.22986   2.90030   -1.000
 5360.00    3.18842   2.87341   -1.000
 5361.00    3.12655   2.83919   -1.000
 5362.00    3.08415   2.80209   -1.000
 5363.00    3.07307   2.76578   -1.000
 5364.00    3.05943   2.73259   -1.000
 5365.00    3.01994   2.70232   -1.000
 5366.00    2.98779   2.67297   -1.000
 5367.00    2.98525   2.64007   -1.000
 5368.00    2.97733   2.59848   -1.000
 5369.00    2.88250   2.55107   -1.000
 5370.00    2.76929   2.51194   -1.000
 5371.00    2.71471   2.50066   11.453
 5372.00    2.80360   2.52939   -1.000
 5373.00    2.99618   2.59195   -1.000
 5374.00    3.15375   2.66759   -1.000
 5375.00    3.21986   2.73400   -1.000
 5376.00    3.20006   2.77861   -1.000
 5377.00    3.16788   2.80140   -1.000
 5378.00    3.17254   2.80874   -1.000
 5379.00    3.17471   2.80585   -1.000
 5380.00    3.15985   2.79567   -1.000
 5381.00    3.11747   2.78122   -1.000
 5382.00    3.06930   2.76773   -1.000
 5383.00    3.06163   2.76052   -1.000
 5384.00    3.09257   2.76137   -1.000
 5385.00    3.13786   2.76688   -1.000
 5386.00    3.15728   2.76896   -1.000
 5387.00    3.14432   2.75949   -1.000
 5388.00    3.10439   2.73578   -1.000
 5389.00    3.03070   2.70180   -1.000
 5390.00    2.96749   2.66552   -1.000
 5391.00    2.95050   2.63440   -1.000
 5392.00    2.95111   2.61124   -1.000
 5393.00    2.95680   2.59316   -1.000
 5394.00    2.95343   2.57535   -1.000
 5395.00    2.89850   2.55517   -1.000
 5396.00    2.82115   2.53684   -1.000
 5397.00    2.79243   2.53085   -1.000
 5398.00    2.85894   2.54482   -1.000
 5399.00    2.96474   2.57469   -1.000
 5400.00    3.01003   2.60591   -1.000
 5401.00    3.01796   2.62176   -1.000
 5402.00    3.01528   2.61045   -1.000
 5403.00    2.94824   2.57096   -1.000
 5404.00    2.80118   2.51469   -1.000
 5405.00    2.69762   2.46451   -1.000
 5406.00    2.69573   2.44045   -1.000
 5407.00    2.77677   2.44552   -1.000
 5408.00    2.85993   2.47062   -1.000
 5409.00    2.86711   2.50612   -1.000
 5410.00    2.86800   2.54870   -1.000
 5411.00    2.94865   2.59890   -1.000
 5412.00    3.07008   2.65257   -1.000
 5413.00    3.13628   2.70251   -1.000
 5414.00    3.13681   2.74523   -1.000
 5415.00    3.12911   2.77980   -1.000
 5416.00    3.14943   2.80613   -1.000
 5417.00    3.18635   2.82242   -1.000
 5418.00    3.20186   2.82598   -1.000
 5419.00    3.18118   2.81810   -1.000
 5420.00    3.14987   2.80317   -1.000
 5421.00    3.13808   2.78660   -1.000
 5422.00    3.15021   2.77289   -1.000
 5423.00    3.13137   2.76485   -1.000
 5424.00    3.09879   2.76581   -1.000
 5425.00    3.12402   2.77454   -1.000
 5426.00    3.19501   2.78154   -1.000
 5427.00    3.21593   2.77340   -1.000
 5428.00    3.12060   2.74319   -1.000
 5429.00    2.97000   2.70007   -1.000
 5430.00    2.89758   2.66029   -1.000
 5431.00    2.95520   2.63287   -1.000
 5432.00    3.01643   2.61613   -1.000
 5433.00    2.98622   2.60582   -1.000
 5434.00    2.92300   2.60402   -1.000
 5435.00    2.92909   2.61924   -1.000
 5436.00    2.99266   2.65764   -1.000
 5437.00    3.06495   2.71774   -1.000
 5438.00    3.15114   2.78947   -1.000
 5439.00    3.25884   2.85718   -1.000
 5440.00    3.34305   2.90746   -1.000
 5441.00    3.34309   2.93272   -1.000
 5442.00    3.31000   2.92940   -1.000
 5443.00    3.27553   2.89658   -1.000
 5444.00    3.17334   2.83837   -1.000
 5445.00    3.04250   2.76724   -1.000
 5446.00    2.88634   2.70543   11.824
 5447.00    2.82922   2.67400   11.768
 5448.00    2.89757   2.68054   11.813
 5449.00    3.01161   2.71353   -1.000
 5450.00    3.10154   2.74923   -1.000
 5451.00    3.12509   2.76679   -1.000
 5452.00    3.10029   2.75736   -1.000
 5453.00    3.02872   2.72371   -1.000
 5454.00    2.93493   2.68127   -1.000
 5455.00    2.86858   2.65268   11.778
 5456.00    2.90026   2.65451   -1.000
 5457.00    3.01541   2.68761   -1.000
 5458.00    3.14169   2.73307   -1.000
 5459.00    3.18111   2.76759   -1.000
 5460.00    3.12745   2.77801   -1.000
 5461.00    3.08570   2.76589   -1.000
 5462.00    3.05296   2.74364   -1.000
 5463.00    3.01688   2.72833   -1.000
 5464.00    3.02686   2.72932   -1.000
 5465.00    3.08722   2.74468   -1.000
 5466.00    3.13889   2.76607   -1.000
 5467.00    3.15450   2.78465   -1.000
 5468.00    3.15586   2.79387   -1.000
 5469.00    3.15407   2.79130   -1.000
 5470.00    3.12738   2.77852   -1.000
 5471.00    3.08094   2.75816   -1.000
 5472.00    3.06663   2.73200   -1.000
 5473.00    3.04425   2.70024   -1.000
 5474.00    3.00385   2.66387   -1.000
 5475.00    2.96840   2.62848   -1.000
 5476.00    2.89221   2.60346   -1.000
 5477.00    2.87462   2.59896   -1.000
 5478.00    2.95089   2.61430   -1.000
 5479.00    3.04824   2.63738   -1.000
 5480.00    3.05658   2.65744   -1.000
 5481.00    2.98448   2.67382   -1.000
 5482.00    2.94097   2.69420   -1.000
 5483.00    2.98702   2.72348   -1.000
 5484.00    3.09390   2.75615   -1.000
 5485.00    3.16129   2.78082   -1.000
 5486.00    3.17970   2.78975   -1.000
 5487.00    3.13363   2.78484   -1.000
 5488.00    3.07756   2.77575   -1.000
 5489.00    3.09713   2.77263   -1.000
 5490.00    3.13654   2.77787   -1.000
 5491.00    3.15599   2.78739   -1.000
 5492.00    3.16336   2.79558   -1.000
 5493.00    3.17320   2.79968   -1.000
 5494.00    3.19204   2.80014   -1.000
 5495.00    3.19119   2.79886   -1.000
 5496.00    3.16797   2.79728   -1.000
 5497.00    3.13695   2.79774   -1.000
 5498.00    3.14908   2.80073   -1.000
 5499.00    3.18988   2.80143   -1.000
 5500.00    3.19812   2.79453   -1.000
 5501.00    3.11746   2.77880   -1.000
 5502.00    3.07774   2.75912   -1.000
 5503.00    3.09940   2.74153   -1.000
 5504.00    3.10571   2.72776   -1.000
 5505.00    3.09298   2.71857   -1.000
 5506.00    3.06048   2.71677   -1.000
 5507.00    3.07803   2.72350   -1.000
 5508.00    3.14261   2.73522   -1.000
 5509.00    3.16272   2.74235   -1.000
 5510.00    3.13721   2.73635   -1.000
 5511.00    3.10085   2.71738   -1.000
 5512.00    3.04164   2.69387   -1.000
 5513.00    2.99745   2.67799   -1.000
 5514.00    3.02195   2.67892   -1.000
 5515.00    3.07110   2.69934   -1.000
 5516.00    3.11624   2.73580   -1.000
 5517.00    3.18809   2.78146   -1.000
 5518.00    3.27179   2.82769   -1.000
 5519.00    3.30681   2.86619   -1.000
 5520.00    3.31012   2.89130   -1.000
 5521.00    3.31483   2.90296   -1.000
 5522.00    3.29763   2.90317   -1.000
 5523.00    3.28826   2.89242   -1.000
 5524.00    3.26701   2.86959   -1.000
 5525.00    3.22471   2.83412   -1.000
 5526.00    3.16786   2.79078   -1.000
 5527.00    3.08671   2.75017   -1.000
 5528.00    3.03140   2.72772   -1.000
 5529.00    3.06327   2.73175   -1.000
 5530.00    3.14671   2.75736   -1.000
 5531.00    3.21433   2.78986   -1.000
 5532.00    3.23328   2.81571   -1.000
 5533.00    3.22357   2.82906   -1.000
 5534.00    3.20996   2.83195   -1.000
 5535.00    3.22534   2.83079   -1.000
 5536.00    3.22168   2.83282   -1.000
 5537.00    3.21910   2.84238   -1.000
 5538.00    3.25804   2.85897   -1.000
 5539.00    3.30797   2.87932   -1.000
 5540.00    3.35447   2.89780   -1.000
 5541.00    3.38800   2.90856   -1.000
 5542.00    3.35290   2.90911   -1.000
 5543.00    3.30164   2.90311   -1.000
 5544.00    3.29605   2.89691   -1.000
 5545.00    3.31408   2.89626   -1.000
 5546.00    3.32105   2.90451   -1.000
 5547.00    3.33348   2.92226   -1.000
 5548.00    3.37621   2.94534   -1.000
 5549.00    3.44153   2.96617   -1.000
 5550.00    3.45332   2.97791   -1.000
 5551.00    3.43463   2.97723   -1.000
 5552.00    3.41331   2.96493   -1.000
 5553.00    3.37206   2.94628   -1.000
 5554.00    3.33647   2.92856   -1.000
 5555.00    3.32794   2.91660   -1.000
 5556.00    3.32762   2.91101   -1.000
 5557.00    3.33561   2.90910   -1.000
 5558.00    3.35144   2.90802   -1.000
 5559.00    3.36491   2.90535   -1.000
 5560.00    3.36849   2.89859   -1.000
 5561.00    3.34523   2.88660   -1.000
 5562.00    3.30833   2.87163   -1.000
 5563.00    3.27516   2.85668   -1.000
 5564.00    3.25951   2.84343   -1.000
 5565.00    3.25937   2.83208   -1.000
 5566.00    3.25221   2.82304   -1.000
 5567.00    3.23262   2.81732   -1.000
 5568.00    3.22350   2.81564   -1.000
 5569.00    3.25236   2.81756   -1.000
 5570.00    3.28439   2.82167   -1.000
 5571.00    3.19741   2.82627   -1.000
 5572.00    2.98808   2.83116   11.861
 5573.00    3.33077   2.83845   -1.000
 5574.00    4.25598   2.85160   -1.000
 5575.00    4.53259   2.86941   -1.000
 5576.00    4.14857   2.88701   -1.000
 5577.00    3.66432   2.90235   -1.000
 5578.00    3.43362   2.91511   -1.000
 5579.00    3.39490   2.92329   -1.000
 5580.00    3.39291   2.92515   -1.000
 5581.00    3.36677   2.91899   -1.000
 5582.00    3.35223   2.90325   -1.000
 5583.00    3.34609   2.87625   -1.000
 5584.00    3.30680   2.83535   -1.000
 5585.00    3.25101   2.78148   -1.000
 5586.00    3.16875   2.72267   -1.000
 5587.00    3.07106   2.67229   -1.000
 5588.00    3.00953   2.64348   -1.000
 5589.00    3.01546   2.64088   -1.000
 5590.00    3.07549   2.66078   -1.000
 5591.00    3.15081   2.69301   -1.000
 5592.00    3.19396   2.72838   -1.000
 5593.00    3.17814   2.76236   -1.000
 5594.00    3.17910   2.79408   -1.000
 5595.00    3.24528   2.82133   -1.000
 5596.00    3.31808   2.83704   -1.000
 5597.00    3.31876   2.83498   -1.000
 5598.00    3.23174   2.81508   -1.000
 5599.00    3.14394   2.78516   -1.000
 5600.00    3.12183   2.75682   -1.000
 5601.00    3.12690   2.74175   -1.000
 5602.00    3.12418   2.74946   -1.000
 5603.00    3.15034   2.78433   -1.000
 5604.00    3.24764   2.84014   -1.000
 5605.00    3.36632   2.90289   -1.000
 5606.00    3.44229   2.95890   -1.000
 5607.00    3.47398   2.99970   -1.000
 5608.00    3.48261   3.02387   -1.000
 5609.00    3.48037   3.03431   -1.000
 5610.00    3.47436   3.03401   -1.000
 5611.00    3.48667   3.02123   -1.000
 5612.00    3.47963   2.99045   -1.000
 5613.00    3.41356   2.93907   -1.000
 5614.00    3.29313   2.87473   -1.000
 5615.00    3.16576   2.81720   -1.000
 5616.00    3.12389   2.78453   -1.000
 5617.00    3.18854   2.78349   -1.000
 5618.00    3.25118   2.80412   -1.000
 5619.00    3.26940   2.83246   -1.000
 5620.00    3.30171   2.85761   -1.000
 5621.00    3.34200   2.87071   -1.000
 5622.00    3.34769   2.86560   -1.000
 5623.00    3.28256   2.84595   -1.000
 5624.00    3.20333   2.82353   -1.000
 5625.00    3.17168   2.81401   -1.000
 5626.00    3.20154   2.82576   -1.000
 5627.00    3.28397   2.85636   -1.000
 5628.00    3.35839   2.89747   -1.000
 5629.00    3.41622   2.93847   -1.000
 5630.00    3.45974   2.96920   -1.000
 5631.00    3.46851   2.98387   -1.000
 5632.00    3.45656   2.98204   -1.000
 5633.00    3.42979   2.96691   -1.000
 5634.00    3.38695   2.94316   -1.000
 5635.00    3.34995   2.91647   -1.000
 5636.00    3.32819   2.89239   -1.000
 5637.00    3.31155   2.87486   -1.000
 5638.00    3.30945   2.86459   -1.000
 5639.00    3.30807   2.85921   -1.000
 5640.00    3.28867   2.85586   -1.000
 5641.00    3.28199   2.85403   -1.000
 5642.00    3.28329   2.85671   -1.000
 5643.00    3.30147   2.86512   -1.000
 5644.00    3.33210   2.87769   -1.000
 5645.00    3.36586   2.89188   -1.000
 5646.00    3.39046   2.90480   -1.000
 5647.00    3.40540   2.91405   -1.000
 5648.00    3.41070   2.91952   -1.000
 5649.00    3.39081   2.92351   -1.000
 5650.00    3.40459   2.92858   -1.000
 5651.00    3.44605   2.93444   -1.000
 5652.00    3.45463   2.93606   -1.000
 5653.00    3.44532   2.92844   -1.000
 5654.00    3.39807   2.91080   -1.000
 5655.00    3.34483   2.88416   -1.000
 5656.00    3.31915   2.85043   -1.000
 5657.00    3.25727   2.81423   -1.000
 5658.00    3.16920   2.78396   -1.000
 5659.00    3.14444   2.77030   -1.000
 5660.00    3.20843   2.77549   -1.000
 5661.00    3.26343   2.79268   -1.000
 5662.00    3.26390   2.81697   -1.000
 5663.00    3.27613   2.84578   -1.000
 5664.00    3.33303   2.87342   -1.000
 5665.00    3.39413   2.89394   -1.000
 5666.00    3.40871   2.90458   -1.000
 5667.00    3.36485   2.90806   -1.000
 5668.00    3.33114   2.91085   -1.000
 5669.00    3.34092   2.91846   -1.000
 5670.00    3.36870   2.93427   -1.000
 5671.00    3.40912   2.95865   -1.000
 5672.00    3.46608   2.98783   -1.000
 5673.00    3.54040   3.01484   -1.000
 5674.00    3.56975   3.03464   -1.000
 5675.00    3.55398   3.04554   -1.000
 5676.00    3.55229   3.04860   -1.000
 5677.00    3.56538   3.04434   -1.000
 5678.00    3.55274   3.03208   -1.000
 5679.00    3.52978   3.01259   -1.000
 5680.00    3.50490   2.98793   -1.000
 5681.00    3.46418   2.96097   -1.000
 5682.00    3.40732   2.93627   -1.000
 5683.00    3.36506   2.91960   -1.000
 5684.00    3.37498   2.91157   -1.000
 5685.00    3.41955   2.90791   -1.000
 5686.00    3.43383   2.90630   -1.000
 5687.00    3.39550   2.90841   -1.000
 5688.00    3.37331   2.91846   -1.000
 5689.00    3.41252   2.93858   -1.000
 5690.00    3.48401   2.96661   -1.000
 5691.00    3.54735   2.99688   -1.000
 5692.00    3.58355   3.02252   -1.000
 5693.00    3.58658   3.03830   -1.000
 5694.00    3.57036   3.04241   -1.000
 5695.00    3.54124   3.03593   -1.000
 5696.00    3.50868   3.02026   -1.000
 5697.00    3.47360   2.99691   -1.000
 5698.00    3.42172   2.96895   -1.000
 5699.00    3.36143   2.94061   -1.000
 5700.00    3.31017   2.91606   -1.000
 5701.00    3.28900   2.89933   -1.000
 5702.00    3.30503   2.89299   -1.000
 5703.00    3.34922   2.89246   -1.000
 5704.00    3.39787   2.88927   -1.000
 5705.00    3.38200   2.87586   -1.000
 5706.00    3.31283   2.85055   -1.000
 5707.00    3.25511   2.81942   -1.000
 5708.00    3.21144   2.79105   -1.000
 5709.00    3.18962   2.77413   -1.000
 5710.00    3.20519   2.77552   -1.000
 5711.00    3.23827   2.79724   -1.000
 5712.00    3.29049   2.83701   -1.000
 5713.00    3.38058   2.88757   -1.000
 5714.00    3.47843   2.93877   -1.000
 5715.00    3.53213   2.98396   -1.000
 5716.00    3.54912   3.02050   -1.000
 5717.00    3.56061   3.04919   -1.000
 5718.00    3.57584   3.07297   -1.000
 5719.00    3.59454   3.09504   -1.000
 5720.00    3.61943   3.11620   -1.000
 5721.00    3.65773   3.13493   -1.000
 5722.00    3.68175   3.14810   -1.000
 5723.00    3.68392   3.15249   -1.000
 5724.00    3.68614   3.14599   -1.000
 5725.00    3.66665   3.13027   -1.000
 5726.00    3.61413   3.11099   -1.000
 5727.00    3.57317   3.09553   -1.000
 5728.00    3.56897   3.08779   -1.000
 5729.00    3.59448   3.08500   -1.000
 5730.00    3.59278   3.08442   -1.000
 5731.00    3.55786   3.08635   -1.000
 5732.00    3.56171   3.09362   -1.000
 5733.00    3.61618   3.10666   -1.000
 5734.00    3.65898   3.12011   -1.000
 5735.00    3.66078   3.12919   -1.000
 5736.00    3.65887   3.13192   -1.000
 5737.00    3.64411   3.12973   -1.000
 5738.00    3.60733   3.12603   -1.000
 5739.00    3.58881   3.12247   -1.000
 5740.00    3.58615   3.12029   -1.000
 5741.00    3.59577   3.11994   -1.000
 5742.00    3.60539   3.12241   -1.000
 5743.00    3.60541   3.12867   -1.000
 5744.00    3.63468   3.13605   -1.000
 5745.00    3.67900   3.14019   -1.000
 5746.00    3.69149   3.13720   -1.000
 5747.00    3.65373   3.12848   -1.000
 5748.00    3.61014   3.11957   -1.000
 5749.00    3.62980   3.11148   -1.000
 5750.00    3.67898   3.10124   -1.000
 5751.00    3.66771   3.08418   -1.000
 5752.00    3.57493   3.06274   -1.000
 5753.00    3.49708   3.04752   -1.000
 5754.00    3.49819   3.04803   -1.000
 5755.00    3.56398   3.06738   -1.000
 5756.00    3.66310   3.09571   -1.000
 5757.00    3.72025   3.11904   -1.000
 5758.00    3.70218   3.12574   -1.000
 5759.00    3.64253   3.11251   -1.000
 5760.00    3.58825   3.08617   -1.000
 5761.00    3.51759   3.06100   -1.000
 5762.00    3.47245   3.05147   -1.000
 5763.00    3.51937   3.06557   -1.000
 5764.00    3.62594   3.09942   -1.000
 5765.00    3.69812   3.14006   -1.000
 5766.00    3.72594   3.17584   -1.000
 5767.00    3.72291   3.19933   -1.000
 5768.00    3.70415   3.20863   -1.000
 5769.00    3.68017   3.20583   -1.000
 5770.00    3.65150   3.19523   -1.000
 5771.00    3.62646   3.18113   -1.000
 5772.00    3.59461   3.16698   -1.000
 5773.00    3.53564   3.15594   -1.000
 5774.00    3.47353   3.14926   -1.000
 5775.00    3.40828   3.14627   -1.000
 5776.00    3.35380   3.14200   12.145
 5777.00    3.36876   3.12849   -1.000
 5778.00    3.42243   3.09965   -1.000
 5779.00    3.44888   3.05459   -1.000
 5780.00    3.41439   3.00080   -1.000
 5781.00    3.34759   2.94989   -1.000
 5782.00    3.34429   2.91323   -1.000
 5783.00    3.37204   2.89491   -1.000
 5784.00    3.35657   2.89459   -1.000
 5785.00    3.35835   2.91251   -1.000
 5786.00    3.43362   2.94557   -1.000
 5787.00    3.52813   2.98594   -1.000
 5788.00    3.59862   3.02475   -1.000
 5789.00    3.62918   3.05562   -1.000
 5790.00    3.60102   3.07872   -1.000
 5791.00    3.57036   3.09851   -1.000
 5792.00    3.57630   3.12024   -1.000
 5793.00    3.60783   3.14392   -1.000
 5794.00    3.67954   3.16471   -1.000
 5795.00    3.75187   3.17745   -1.000
 5796.00    3.74754   3.18131   -1.000
 5797.00    3.70642   3.18331   -1.000
 5798.00    3.71508   3.19172   -1.000
 5799.00    3.76665   3.21023   -1.000
 5800.00    3.82582   3.23280   -1.000
 5801.00    3.86455   3.24912   -1.000
 5802.00    3.85119   3.25204   -1.000
 5803.00    3.79193   3.24051   -1.000
 5804.00    3.71782   3.22148   -1.000
 5805.00    3.68302   3.20406   -1.000
 5806.00    3.69733   3.19499   -1.000
 5807.00    3.72270   3.19583   -1.000
 5808.00    3.74489   3.20424   -1.000
 5809.00    3.76954   3.21608   -1.000
 5810.00    3.78721   3.22641   -1.000
 5811.00    3.80023   3.23054   -1.000
 5812.00    3.80466   3.22591   -1.000
 5813.00    3.78802   3.21289   -1.000
 5814.00    3.75534   3.19592   -1.000
 5815.00    3.71092   3.18276   -1.000
 5816.00    3.69830   3.18209   -1.000
 5817.00    3.73203   3.19633   -1.000
 5818.00    3.78391   3.22106   -1.000
 5819.00    3.83784   3.24649   -1.000
 5820.00    3.87632   3.26494   -1.000
 5821.00    3.88826   3.27382   -1.000
 5822.00    3.87273   3.27519   -1.000
 5823.00    3.85165   3.27417   -1.000
 5824.00    3.84446   3.27413   -1.000
 5825.00    3.85518   3.27664   -1.000
 5826.00    3.87089   3.28129   -1.000
 5827.00    3.88586   3.28697   -1.000
 5828.00    3.88492   3.29270   -1.000
 5829.00    3.87863   3.29650   -1.000
 5830.00    3.89090   3.29672   -1.000
 5831.00    3.87465   3.29256   -1.000
 5832.00    3.86407   3.28429   -1.000
 5833.00    3.85242   3.27367   -1.000
 5834.00    3.83147   3.26341   -1.000
 5835.00    3.82687   3.25662   -1.000
 5836.00    3.83909   3.25427   -1.000
 5837.00    3.84258   3.25638   -1.000
 5838.00    3.81854   3.26389   -1.000
 5839.00    3.80474   3.27650   -1.000
 5840.00    3.83382   3.29170   -1.000
 5841.00    3.87514   3.30450   -1.000
 5842.00    3.88563   3.30974   -1.000
 5843.00    3.86975   3.30462   -1.000
 5844.00    3.82969   3.28938   -1.000
 5845.00    3.77827   3.26735   -1.000
 5846.00    3.74616   3.24382   -1.000
 5847.00    3.72764   3.22346   -1.000
 5848.00    3.71990   3.20819   -1.000
 5849.00    3.72680   3.19590   -1.000
 5850.00    3.73304   3.18212   -1.000
 5851.00    3.71361   3.16454   -1.000
 5852.00    3.67315   3.14381   -1.000
 5853.00    3.64144   3.12241   -1.000
 5854.00    3.62442   3.10129   -1.000
 5855.00    3.60841   3.07893   -1.000
 5856.00    3.56966   3.05711   -1.000
 5857.00    3.53942   3.04195   -1.000
 5858.00    3.54341   3.04049   -1.000
 5859.00    3.58743   3.05502   -1.000
 5860.00    3.64662   3.07883   -1.000
 5861.00    3.69148   3.10425   -1.000
 5862.00    3.69729   3.12476   -1.000
 5863.00    3.70040   3.13786   -1.000
 5864.00    3.70991   3.14416   -1.000
 5865.00    3.68251   3.14579   -1.000
 5866.00    3.65249   3.14771   -1.000
 5867.00    3.64153   3.15610   -1.000
 5868.00    3.69079   3.17147   -1.000
 5869.00    3.75045   3.18985   -1.000
 5870.00    3.78872   3.20582   -1.000
 5871.00    3.78758   3.21544   -1.000
 5872.00    3.72526   3.21844   -1.000
 5873.00    3.71915   3.21657   -1.000
 5874.00    3.75058   3.21129   -1.000
 5875.00    3.74576   3.20190   -1.000
 5876.00    3.72088   3.18706   -1.000
 5877.00    3.69318   3.16725   -1.000
 5878.00    3.66845   3.14498   -1.000
 5879.00    3.63243   3.12464   -1.000
 5880.00    3.59223   3.10982   -1.000
 5881.00    3.50218   3.10137   -1.000
 5882.00    3.34680   3.09447   -1.000
 5883.00    3.07886   3.08202   12.413
 5884.00    2.70791   3.05603   -1.000
 5885.00    2.41674   3.00472   -1.000
 5886.00    2.48544   2.91666   -1.000
 5887.00    2.70251   2.78986   14.224
 5888.00    2.69560   2.63954   13.676
 5889.00    2.41909   2.50192   13.320
 5890.00    2.11363   2.41174   -1.000
 5891.00    2.04295   2.38612   -1.000
 5892.00    2.27016   2.40553   13.791
 5893.00    2.59622   2.44047   13.474
 5894.00    2.77668   2.46980   -1.000
 5895.00    2.78536   2.49499   -1.000
 5896.00    2.78232   2.53858   -1.000
 5897.00    2.93238   2.61047   -1.000
 5898.00    3.18413   2.70675   -1.000
 5899.00    3.38287   2.81257   -1.000
 5900.00    3.50481   2.91139   -1.000
 5901.00    3.58674   2.99056   -1.000
 5902.00    3.61914   3.04584   -1.000
 5903.00    3.61767   3.07979   -1.000
 5904.00    3.60421   3.09866   -1.000
 5905.00    3.59122   3.10954   -1.000
 5906.00    3.58907   3.11893   -1.000
 5907.00    3.60307   3.12953   -1.000
 5908.00    3.63428   3.14065   -1.000
 5909.00    3.65828   3.15004   -1.000
 5910.00    3.67779   3.15378   -1.000
 5911.00    3.67610   3.14787   -1.000
 5912.00    3.64510   3.13135   -1.000
 5913.00    3.57892   3.10767   -1.000
 5914.00    3.51441   3.08575   -1.000
 5915.00    3.49568   3.07451   -1.000
 5916.00    3.52173   3.07707   -1.000
 5917.00    3.57877   3.09231   -1.000
 5918.00    3.62940   3.11369   -1.000
 5919.00    3.65529   3.13435   -1.000
 5920.00    3.64082   3.14955   -1.000
 5921.00    3.62943   3.15874   -1.000
 5922.00    3.64580   3.16461   -1.000
 5923.00    3.66453   3.17091   -1.000
 5924.00    3.68348   3.17802   -1.000
 5925.00    3.70648   3.18320   -1.000
 5926.00    3.71622   3.18276   -1.000
 5927.00    3.69529   3.17460   -1.000
 5928.00    3.66241   3.16199   -1.000
 5929.00    3.63515   3.15048   -1.000
 5930.00    3.63837   3.14580   -1.000
 5931.00    3.64641   3.14761   -1.000
 5932.00    3.67979   3.15194   -1.000
 5933.00    3.69462   3.15607   -1.000
 5934.00    3.66359   3.16042   -1.000
 5935.00    3.65536   3.16851   -1.000
 5936.00    3.68180   3.17959   -1.000
 5937.00    3.70723   3.18927   -1.000
 5938.00    3.71453   3.19384   -1.000
 5939.00    3.71092   3.19065   -1.000
 5940.00    3.67932   3.18142   -1.000
 5941.00    3.63426   3.17183   -1.000
 5942.00    3.62764   3.16838   -1.000
 5943.00    3.65491   3.17251   -1.000
 5944.00    3.71243   3.18130   -1.000
 5945.00    3.74663   3.18854   -1.000
 5946.00    3.74555   3.18920   -1.000
 5947.00    3.72672   3.18254   -1.000
 5948.00    3.67820   3.17279   -1.000
 5949.00    3.65067   3.16544   -1.000
 5950.00    3.67234   3.16081   -1.000
 5951.00    3.70190   3.15788   -1.000
 5952.00    3.67202   3.15552   -1.000
 5953.00    3.64274   3.15417   -1.000
 5954.00    3.64941   3.15424   -1.000
 5955.00    3.67154   3.15416   -1.000
 5956.00    3.67087   3.15496   -1.000
 5957.00    3.64142   3.16095   -1.000
 5958.00    3.65585   3.17416   -1.000
 5959.00    3.71682   3.19381   -1.000
 5960.00    3.77174   3.21570   -1.000
 5961.00    3.80031   3.23391   -1.000
 5962.00    3.79699   3.24455   -1.000
 5963.00    3.76379   3.24676   -1.000
 5964.00    3.73439   3.24337   -1.000
 5965.00    3.71154   3.23968   -1.000
 5966.00    3.71571   3.24112   -1.000
 5967.00    3.75601   3.24885   -1.000
 5968.00    3.77801   3.26115   -1.000
 5969.00    3.81277   3.27481   -1.000
 5970.00    3.84590   3.28588   -1.000
 5971.00    3.84063   3.29047   -1.000
 5972.00    3.82571   3.28611   -1.000
 5973.00    3.80039   3.27186   -1.000
 5974.00    3.77068   3.24932   -1.000
 5975.00    3.72863   3.22333   -1.000
 5976.00    3.70096   3.20135   -1.000
 5977.00    3.68330   3.18853   -1.000
 5978.00    3.68434   3.18683   -1.000
 5979.00    3.71313   3.19206   -1.000
 5980.00    3.74928   3.19679   -1.000
 5981.00    3.76155   3.19313   -1.000
 5982.00    3.73960   3.17998   -1.000
 5983.00    3.66569   3.16287   -1.000
 5984.00    3.61957   3.15173   -1.000
 5985.00    3.64470   3.15324   -1.000
 5986.00    3.69847   3.16606   -1.000
 5987.00    3.74764   3.18613   -1.000
 5988.00    3.76763   3.20813   -1.000
 5989.00    3.80338   3.22762   -1.000
 5990.00    3.80237   3.24340   -1.000
 5991.00    3.78049   3.25701   -1.000
 5992.00    3.79051   3.26958   -1.000
 5993.00    3.80547   3.27896   -1.000
 5994.00    3.83151   3.28087   -1.000
 5995.00    3.82866   3.27263   -1.000
 5996.00    3.79300   3.25716   -1.000
 5997.00    3.76185   3.24031   -1.000
 5998.00    3.72790   3.22888   -1.000
 5999.00    3.72175   3.22443   -1.000
 6000.00    3.74501   3.22454   -1.000
 6001.00    3.73717   3.22551   -1.000
 6002.00    3.72882   3.22438   -1.000
 6003.00    3.71524   3.22092   -1.000
 6004.00    3.69986   3.21354   -1.000
 6005.00    3.67652   3.20092   -1.000
 6006.00    3.64017   3.18626   -1.000
 6007.00    3.60512   3.17520   -1.000
 6008.00    3.62354   3.17421   -1.000
 6009.00    3.68969   3.18297   -1.000
 6010.00    3.75595   3.19371   -1.000
 6011.00    3.78330   3.20013   -1.000
 6012.00    3.74412   3.19973   -1.000
 6013.00    3.71821   3.19541   -1.000
 6014.00    3.70806   3.19046   -1.000
 6015.00    3.71493   3.18567   -1.000
 6016.00    3.72860   3.18165   -1.000
 6017.00    3.71063   3.17847   -1.000
 6018.00    3.71030   3.17432   -1.000
 6019.00    3.72321   3.16967   -1.000
 6020.00    3.72451   3.16836   -1.000
 6021.00    3.70684   3.17301   -1.000
 6022.00    3.71708   3.18508   -1.000
 6023.00    3.75130   3.20381   -1.000
 6024.00    3.77150   3.22687   -1.000
 6025.00    3.78962   3.25136   -1.000
 6026.00    3.82964   3.27520   -1.000
 6027.00    3.86952   3.29771   -1.000
 6028.00    3.88558   3.31852   -1.000
 6029.00    3.89551   3.33708   -1.000
 6030.00    3.88729   3.35412   -1.000
 6031.00    3.88076   3.37080   -1.000
 6032.00    3.89569   3.38781   -1.000
 6033.00    3.91989   3.40498   -1.000
 6034.00    3.92051   3.41937   -1.000
 6035.00    3.91023   3.42703   -1.000
 6036.00    3.91734   3.42635   -1.000
 6037.00    3.92051   3.41796   -1.000
 6038.00    3.91298   3.40543   -1.000
 6039.00    3.89509   3.39340   -1.000
 6040.00    3.88137   3.38668   -1.000
 6041.00    3.86376   3.38736   -1.000
 6042.00    3.88356   3.39490   -1.000
 6043.00    3.91494   3.40679   -1.000
 6044.00    3.93480   3.41903   -1.000
 6045.00    3.97377   3.42991   -1.000
 6046.00    3.98172   3.43788   -1.000
 6047.00    3.97538   3.44275   -1.000
 6048.00    3.97930   3.44441   -1.000
 6049.00    3.97529   3.44232   -1.000
 6050.00    3.98573   3.43508   -1.000
 6051.00    3.97435   3.42161   -1.000
 6052.00    3.95211   3.40276   -1.000
 6053.00    3.93049   3.38127   -1.000
 6054.00    3.91724   3.36092   -1.000
 6055.00    3.88307   3.34586   -1.000
 6056.00    3.85927   3.33958   -1.000
 6057.00    3.87998   3.34186   -1.000
 6058.00    3.81267   3.34930   -1.000
 6059.00    3.62638   3.35596   -1.000
 6060.00    3.86885   3.35616   -1.000
 6061.00    3.81805   3.34725   -1.000
 6062.00    2.66863   3.33095    4.613
 6063.00    1.82032   3.31367   -1.000
 6064.00    3.08162   3.30423   12.423
 6065.00    3.77851   3.31009   -1.000
 6066.00    3.91591   3.33229   -1.000
 6067.00    3.61781   3.36511   -1.000
 6068.00    1.64995   3.39983   -1.000
 6069.00    2.89893   3.43003   -1.000
 6070.00    3.98884   3.45216   -1.000
 6071.00    4.06110   3.46501   -1.000
 6072.00    4.05446   3.46884   -1.000
 6073.00    4.05294   3.46432   -1.000
 6074.00    4.03003   3.45190   -1.000
 6075.00    4.01210   3.43224   -1.000
 6076.00    3.98074   3.40736   -1.000
 6077.00    3.93679   3.38035   -1.000
 6078.00    3.87904   3.35498   -1.000
 6079.00    3.85303   3.33354   -1.000
 6080.00    3.87279   3.31704   -1.000
 6081.00    3.83884   3.30605   -1.000
 6082.00    3.81697   3.30125   -1.000
 6083.00    3.85542   3.30190   -1.000
 6084.00    3.87013   3.30651   -1.000
 6085.00    3.86669   3.31326   -1.000
 6086.00    3.86812   3.31922   -1.000
 6087.00    3.88182   3.32131   -1.000
 6088.00    3.88891   3.31801   -1.000
 6089.00    3.87251   3.31086   -1.000
 6090.00    3.83612   3.30462   -1.000
 6091.00    3.79399   3.30383   -1.000
 6092.00    3.79439   3.31111   -1.000
 6093.00    3.83907   3.32565   -1.000
 6094.00    3.89573   3.34364   -1.000
 6095.00    3.92705   3.36010   -1.000
 6096.00    3.92413   3.37149   -1.000
 6097.00    3.92416   3.37550   -1.000
 6098.00    3.92572   3.36872   -1.000
 6099.00    3.92764   3.34839   -1.000
 6100.00    3.91131   3.31624   -1.000
 6101.00    3.82916   3.28050   -1.000
 6102.00    3.70699   3.25539   -1.000
 6103.00    3.67177   3.25043   -1.000
 6104.00    3.74279   3.26637   -1.000
 6105.00    3.82045   3.29532   -1.000
 6106.00    3.86421   3.32792   -1.000
 6107.00    3.90163   3.35713   -1.000
 6108.00    3.88858   3.37941   -1.000
 6109.00    3.87605   3.39421   -1.000
 6110.00    3.88137   3.40381   -1.000
 6111.00    3.89202   3.41144   -1.000
 6112.00    3.92480   3.41833   -1.000
 6113.00    3.93542   3.42330   -1.000
 6114.00    3.93251   3.42344   -1.000
 6115.00    3.91855   3.41703   -1.000
 6116.00    3.90226   3.40314   -1.000
 6117.00    3.89610   3.38079   -1.000
 6118.00    3.88213   3.34999   -1.000
 6119.00    3.83042   3.31356   -1.000
 6120.00    3.76072   3.27868   -1.000
 6121.00    3.68346   3.25504   -1.000
 6122.00    3.65731   3.24979   -1.000
 6123.00    3.73956   3.26229   -1.000
 6124.00    3.84859   3.28406   -1.000
 6125.00    3.90146   3.30676   -1.000
 6126.00    3.89892   3.32560   -1.000
 6127.00    3.84733   3.34116   -1.000
 6128.00    3.81506   3.35678   -1.000
 6129.00    3.83322   3.37337   -1.000
 6130.00    3.85856   3.38713   -1.000
 6131.00    3.91213   3.38987   -1.000
 6132.00    3.93036   3.37305   -1.000
 6133.00    3.89771   3.33254   -1.000
 6134.00    3.79319   3.27401   -1.000
 6135.00    3.63707   3.21326   -1.000
 6136.00    3.52096   3.17131   -1.000
 6137.00    3.48789   3.16139   -1.000
 6138.00    3.58630   3.18360   -1.000
 6139.00    3.75116   3.22512   -1.000
 6140.00    3.84209   3.27191   -1.000
 6141.00    3.85740   3.31571   -1.000
 6142.00    3.84410   3.35292   -1.000
 6143.00    3.88068   3.38203   -1.000
 6144.00    3.92388   3.40116   -1.000
 6145.00    3.93018   3.40862   -1.000
 6146.00    3.90252   3.40420   -1.000
 6147.00    3.85490   3.39060   -1.000
 6148.00    3.80887   3.37317   -1.000
 6149.00    3.74745   3.35773   -1.000
 6150.00    3.74582   3.34803   -1.000
 6151.00    3.75732   3.34319   -1.000
 6152.00    3.74870   3.33953   -1.000
 6153.00    3.73559   3.33301   -1.000
 6154.00    3.69850   3.32186   -1.000
 6155.00    3.65156   3.30526   -1.000
 6156.00    3.66349   3.28088   -1.000
 6157.00    3.63620   3.24495   -1.000
 6158.00    3.57033   3.19390   -1.000
 6159.00    3.50202   3.12935   -1.000
 6160.00    3.36863   3.06115   -1.000
 6161.00    3.21497   3.00601   -1.000
 6162.00    3.15316   2.97860   12.973
 6163.00    3.19528   2.98292   -1.000
 6164.00    3.29500   3.01153   -1.000
 6165.00    3.37428   3.04861   -1.000
 6166.00    3.43107   3.07923   -1.000
 6167.00    3.45287   3.09565   -1.000
 6168.00    3.41940   3.10157   -1.000
 6169.00    3.37626   3.10727   -1.000
 6170.00    3.33780   3.12173   -1.000
 6171.00    3.39933   3.14604   -1.000
 6172.00    3.50226   3.17526   -1.000
 6173.00    3.52858   3.20338   -1.000
 6174.00    3.50415   3.22601   -1.000
 6175.00    3.49957   3.24273   -1.000
 6176.00    3.51585   3.25614   -1.000
 6177.00    3.56012   3.26919   -1.000
 6178.00    3.58508   3.28293   -1.000
 6179.00    3.58263   3.29714   -1.000
 6180.00    3.57670   3.31049   -1.000
 6181.00    3.58539   3.32004   -1.000
 6182.00    3.58882   3.32240   -1.000
 6183.00    3.58531   3.31526   -1.000
 6184.00    3.58819   3.29795   -1.000
 6185.00    3.56772   3.27210   -1.000
 6186.00    3.52016   3.24080   -1.000
 6187.00    3.48472   3.20768   -1.000
 6188.00    3.43009   3.17582   -1.000
 6189.00    3.38662   3.14932   -1.000
 6190.00    3.33109   3.13459   12.702
 6191.00    3.28184   3.13730   12.616
 6192.00    3.32122   3.15827   12.594
 6193.00    3.41565   3.19190   -1.000
 6194.00    3.49922   3.22841   -1.000
 6195.00    3.54703   3.25823   -1.000
 6196.00    3.53340   3.27506   -1.000
 6197.00    3.50686   3.27890   -1.000
 6198.00    3.45658   3.27591   12.633
 6199.00    3.39445   3.27527   12.590
 6200.00    3.41345   3.28282   12.590
 6201.00    3.46972   3.29912   12.570
 6202.00    3.55768   3.32043   -1.000
 6203.00    3.62108   3.34159   -1.000
 6204.00    3.63018   3.35883   -1.000
 6205.00    3.63352   3.37011   -1.000
 6206.00    3.63250   3.37463   -1.000
 6207.00    3.63725   3.37157   -1.000
 6208.00    3.60962   3.35970   -1.000
 6209.00    3.57529   3.33777   -1.000
 6210.00    3.55602   3.30528   -1.000
 6211.00    3.52495   3.26376   -1.000
 6212.00    3.46233   3.21814   -1.000
 6213.00    3.38199   3.17606   -1.000
 6214.00    3.33146   3.14486   13.238
 6215.00    3.30116   3.12777   13.198
 6216.00    3.32223   3.12279   13.101
 6217.00    3.38504   3.12456   -1.000
 6218.00    3.40459   3.12865   -1.000
 6219.00    3.38715   3.13426   -1.000
 6220.00    3.38960   3.14228   -1.000
 6221.00    3.41554   3.15329   -1.000
 6222.00    3.42387   3.16623   -1.000
 6223.00    3.42958   3.17875   -1.000
 6224.00    3.45272   3.18783   -1.000
 6225.00    3.43207   3.18971   -1.000
 6226.00    3.44975   3.18091   -1.000
 6227.00    3.44290   3.16003   -1.000
 6228.00    3.40310   3.13004   -1.000
 6229.00    3.34491   3.09974   -1.000
 6230.00    3.25819   3.08074   12.968
 6231.00    3.24673   3.08192   12.902
 6232.00    3.29466   3.10472   12.983
 6233.00    3.35749   3.14185   -1.000
 6234.00    3.46853   3.18021   -1.000
 6235.00    3.53599   3.20700   -1.000
 6236.00    3.51583   3.21519   -1.000
 6237.00    3.47763   3.20491   -1.000
 6238.00    3.45578   3.18202   -1.000
 6239.00    3.39484   3.15410   -1.000
 6240.00    3.35253   3.12716   -1.000
 6241.00    3.33239   3.10471   -1.000
 6242.00    3.31095   3.08927   -1.000
 6243.00    3.30898   3.08320   -1.000
 6244.00    3.31204   3.08835   -1.000
 6245.00    3.33094   3.10500   -1.000
 6246.00    3.37227   3.13020   -1.000
 6247.00    3.44074   3.15703   -1.000
 6248.00    3.48744   3.17664   -1.000
 6249.00    3.48826   3.18190   -1.000
 6250.00    3.45850   3.17040   -1.000
 6251.00    3.39371   3.14566   -1.000
 6252.00    3.32430   3.11469   -1.000
 6253.00    3.28858   3.08409   -1.000
 6254.00    3.28132   3.05778   -1.000
 6255.00    3.27524   3.03792   -1.000
 6256.00    3.27203   3.02734   -1.000
 6257.00    3.23539   3.02985   -1.000
 6258.00    3.22835   3.04822   13.128
 6259.00    3.27476   3.08166   13.058
 6260.00    3.36361   3.12484   -1.000
 6261.00    3.44120   3.16930   -1.000
 6262.00    3.47506   3.20664   -1.000
 6263.00    3.48960   3.23208   -1.000
 6264.00    3.45496   3.24609   -1.000
 6265.00    3.41299   3.25260   13.203
 6266.00    3.39338   3.25544   13.189
 6267.00    3.43790   3.25715   13.144
 6268.00    3.46531   3.25944   -1.000
 6269.00    3.43341   3.26317   13.145
 6270.00    3.41975   3.26810   13.239
 6271.00    3.41408   3.27246   13.346
 6272.00    3.36713   3.27333   13.558
 6273.00    3.29158   3.26779   13.899
 6274.00    3.21710   3.25456   14.155
 6275.00    3.19941   3.23455   14.248
 6276.00    3.16125   3.21052   14.197
 6277.00    3.11831   3.18646   13.977
 6278.00    3.09275   3.16693   13.735
 6279.00    3.03575   3.15663   13.523
 6280.00    3.01399   3.15926   13.359
 6281.00    3.09472   3.17570   13.247
 6282.00    3.24728   3.20338   13.127
 6283.00    3.35128   3.23735   13.034
 6284.00    3.43949   3.27229   13.007
 6285.00    3.50024   3.30390   -1.000
 6286.00    3.53146   3.32880   -1.000
 6287.00    3.58169   3.34415   -1.000
 6288.00    3.61528   3.34820   -1.000
 6289.00    3.61220   3.34137   -1.000
 6290.00    3.59123   3.32676   -1.000
 6291.00    3.57901   3.30859   -1.000
 6292.00    3.55320   3.29020   -1.000
 6293.00    3.59625   3.27257   -1.000
 6294.00    3.59148   3.25490   -1.000
 6295.00    3.59468   3.23709   -1.000
 6296.00    3.58841   3.22061   -1.000
 6297.00    3.55833   3.20733   -1.000
 6298.00    3.53015   3.19785   -1.000
 6299.00    3.50780   3.19187   -1.000
 6300.00    3.47767   3.19007   -1.000
 6301.00    3.44947   3.19396   -1.000
 6302.00    3.41889   3.20520   -1.000
 6303.00    3.45147   3.22440   -1.000
 6304.00    3.47474   3.25040   -1.000
 6305.00    3.51515   3.28011   -1.000
 6306.00    3.55372   3.30882   -1.000
 6307.00    3.62482   3.33106   -1.000
 6308.00    3.67156   3.34282   -1.000
 6309.00    3.67636   3.34294   -1.000
 6310.00    3.62827   3.33298   -1.000
 6311.00    3.56142   3.31596   -1.000
 6312.00    3.53794   3.29457   -1.000
 6313.00    3.53784   3.27112   -1.000
 6314.00    3.52165   3.24792   -1.000
 6315.00    3.47834   3.22735   -1.000
 6316.00    3.44860   3.21248   -1.000
 6317.00    3.46978   3.20739   -1.000
 6318.00    3.50243   3.21477   -1.000
 6319.00    3.50780   3.23392   -1.000
 6320.00    3.55167   3.26161   -1.000
 6321.00    3.61893   3.29343   -1.000
 6322.00    3.64224   3.32525   -1.000
 6323.00    3.69302   3.35373   -1.000
 6324.00    3.72764   3.37672   -1.000
 6325.00    3.74007   3.39366   -1.000
 6326.00    3.72917   3.40522   -1.000
 6327.00    3.74066   3.41252   -1.000
 6328.00    3.73387   3.41677   -1.000
 6329.00    3.72756   3.41899   -1.000
 6330.00    3.72578   3.41878   -1.000
 6331.00    3.72607   3.41363   -1.000
 6332.00    3.74572   3.40069   -1.000
 6333.00    3.76491   3.37936   -1.000
 6334.00    3.72275   3.35387   -1.000
 6335.00    3.63047   3.33161   -1.000
 6336.00    3.58729   3.31936   -1.000
 6337.00    3.60806   3.32005   -1.000
 6338.00    3.67638   3.33133   -1.000
 6339.00    3.71220   3.34635   -1.000
 6340.00    3.73553   3.35774   -1.000
 6341.00    3.73297   3.36163   -1.000
 6342.00    3.71627   3.35969   -1.000
 6343.00    3.66343   3.35787   -1.000
 6344.00    3.63530   3.36202   -1.000
 6345.00    3.67595   3.37511   -1.000
 6346.00    3.73051   3.39595   -1.000
 6347.00    3.74836   3.42020   -1.000
 6348.00    3.78786   3.44251   -1.000
 6349.00    3.80577   3.45819   -1.000
 6350.00    3.77467   3.46411   -1.000
 6351.00    3.78543   3.45888   -1.000
 6352.00    3.79252   3.44332   -1.000
 6353.00    3.74012   3.42031   -1.000
 6354.00    3.67426   3.39308   -1.000
 6355.00    3.64661   3.36361   -1.000
 6356.00    3.64314   3.33275   -1.000
 6357.00    3.62639   3.30128   -1.000
 6358.00    3.59109   3.27090   -1.000
 6359.00    3.54932   3.24431   -1.000
 6360.00    3.55775   3.22535   -1.000
 6361.00    3.54903   3.21801   -1.000
 6362.00    3.51549   3.22492   -1.000
 6363.00    3.53429   3.24609   -1.000
 6364.00    3.58351   3.27892   -1.000
 6365.00    3.65158   3.31886   -1.000
 6366.00    3.70485   3.36036   -1.000
 6367.00    3.77015   3.39838   -1.000
 6368.00    3.81816   3.43020   -1.000
 6369.00    3.81723   3.45564   -1.000
 6370.00    3.82302   3.47623   -1.000
 6371.00    3.81542   3.49311   -1.000
 6372.00    3.80320   3.50631   -1.000
 6373.00    3.80961   3.51513   -1.000
 6374.00    3.79280   3.51854   -1.000
 6375.00    3.78495   3.51574   -1.000
 6376.00    3.80324   3.50739   -1.000
 6377.00    3.77534   3.49576   -1.000
 6378.00    3.72555   3.48400   -1.000
 6379.00    3.70073   3.47524   -1.000
 6380.00    3.68816   3.47136   -1.000
 6381.00    3.72830   3.47244   -1.000
 6382.00    3.74785   3.47733   -1.000
 6383.00    3.74849   3.48476   -1.000
 6384.00    3.73453   3.49365   -1.000
 6385.00    3.73332   3.50264   -1.000
 6386.00    3.73969   3.51000   -1.000
 6387.00    3.71715   3.51351   -1.000
 6388.00    3.71331   3.51036   -1.000
 6389.00    3.69940   3.49819   -1.000
 6390.00    3.69334   3.47741   -1.000
 6391.00    3.62345   3.45239   13.347
 6392.00    3.52020   3.43115   13.327
 6393.00    3.45790   3.42011   13.412
 6394.00    3.46513   3.42074   13.618
 6395.00    3.54221   3.42797   13.935
 6396.00    3.58907   3.43335   14.034
 6397.00    3.58258   3.43127   13.885
 6398.00    3.53177   3.42356   13.660
 6399.00    3.44181   3.41880   13.595
 6400.00    3.37748   3.42441   13.635
 6401.00    3.41886   3.44239   13.710
 6402.00    3.47523   3.46754   13.912
 6403.00    3.49538   3.49032   14.129
 6404.00    3.51622   3.50241   14.271
 6405.00    3.47542   3.50130   14.331
 6406.00    3.40650   3.49061   14.405
 6407.00    3.33949   3.47644   14.525
 6408.00    3.29813   3.46378   14.603
 6409.00    3.32249   3.45480   14.624
 6410.00    3.31002   3.45005   14.637
 6411.00    3.24873   3.44963   14.718
 6412.00    3.20648   3.45308   -1.000
 6413.00    3.19550   3.45979   -1.000
 6414.00    3.18618   3.46759   -1.000
 6415.00    3.18121   3.47273   -1.000
 6416.00    3.16945   3.47146   -1.000
 6417.00    3.14601   3.46244   -1.000
 6418.00    3.12759   3.44861   -1.000
 6419.00    3.05335   3.43687   -1.000
 6420.00    2.97933   3.43457   -1.000
 6421.00    2.94118   3.44515   -1.000
 6422.00    2.96223   3.46712   -1.000
 6423.00    3.01087   3.49482   -1.000
 6424.00    2.98423   3.52095   -1.000
 6425.00    2.93188   3.53885   -1.000
 6426.00    2.94016   3.54360   -1.000
 6427.00    0.17232   3.53411   -1.000
 6428.00    0.00000   3.51382   -2.000
