###################################################################
## OUTPUT of StarlightChains_v04.for    [Cid@UFSC - 01/Apr/2007] ##
###################################################################

## Some input info
NGC6254_a_1.cxt                          [arq_obs]
Base.BC03.S                              [arq_base]
NGC6254_a_1.msk                          [arq_masks]
StCv04.C99.config                        [arq_config]
  150                                    [N_base]
    0                                    [N_YAV_components = # of components with extra extinction!]
    0                                    [i_FitPowerLaw (1/0 = Yes/No)]
-9.99                                    [alpha_PowerLaw]
CCM                                      [red_law_option]
 1.458241                                [q_norm = A(l_norm)/A(V)]

## (Re)Sampling Parameters
 3359.00                                 [l_ini (A)]
 6428.00                                 [l_fin (A)]
    1.00                                 [dl    (A)]     (OBS: dl_cushion =    50.00 A)

## Normalization info
 4020.00                                 [l_norm (A) - for base]
 4010.00                                 [llow_norm (A) - window for f_obs]
 4060.00                                 [lupp_norm (A) - window for f_obs]
2.492239E-14                             [fobs_norm (in input units)]

## S/N
 4730.00                                 [llow_SN (A) - window for S/N]
 4780.00                                 [lupp_SN (A) - window for S/N]
 102.867                                 [S/N in S/N window]
  85.513                                 [S/N in norm. window]
 113.249                                 [S/N_err in S/N window]
  94.144                                 [S/N_err in norm. window]
  1.0000                                 [fscale_chi2]

## etc...
  2147483623                             [idum_orig]
  3066                                   [NOl_eff]
  1580                                   [Nl_eff]
  1486    NSIGMA                         [Ntot_cliped & clip_method]
  3028690                                [Nglobal_steps]
   7                                     [N_chains]
  17                                     [NEX0s_base = N_base in EX0s-fits]
 0   0   1      142   2.0   2.178E+02    [Clip-Bug, RC-Crash & Burn-In warning-flags, n_censored_weights, wei_nsig_threshold & wei_limit]
   140    139.358    139.326      0.032  [idt_all, wdt_TotTime, wdt_UsrTime & wdt_SysTime (sec)]

## Synthesis Results - Best model ##

 2.14947E+00                             [chi2/Nl_eff]
     1.38218                             [adev (%)]

   100.94801                             [sum-of-x (%)]
 7.09892E-14                             [Flux_tot (units of input spectrum!)]
 1.24365E-09                             [Mini_tot (???)]
 6.27405E-10                             [Mcor_tot (???)]

 -14.23                                  [v0_min  (km/s)]
  79.98                                  [vd_min  (km/s)]
 0.7723                                  [AV_min  (mag)]
 0.0000                                  [YAV_min (mag)]

# j     x_j(%)      Mini_j(%)     Mcor_j(%)     age_j(yr)     Z_j      (L/M)_j    YAV?  Mstars   component_j        a/Fe...       SSP_chi2r SSP_adev(%)   SSP_AV   SSP_x(%)
  1      0.0000     0.0000E+00    0.0000E+00    1.000000E+06  0.00010  8.160E-03    0   1.0000   age020_m22            0.0000     1.6538E+02    11.4071   4.0000    81.9462
  2     16.4783     1.9579E-02    3.8810E-02    3.160000E+06  0.00010  4.759E-02    0   1.0000   age045_m22            0.0000     1.7023E+01     3.5360   2.0902    99.2979
  3      0.2623     7.6758E-04    1.4579E-03    5.010000E+06  0.00010  1.932E-02    0   0.9582   age055_m22            0.0000     1.3650E+02    10.5798   2.3798    87.3811
  4      0.0000     0.0000E+00    0.0000E+00    6.610000E+06  0.00010  9.973E-03    0   0.9297   age061_m22            0.0000     1.5747E+02    11.3500   4.0000    84.3570
  5      0.0000     0.0000E+00    0.0000E+00    8.710000E+06  0.00010  7.690E-03    0   0.9030   age067_m22            0.0000     1.4770E+02    11.0025   4.0000    84.6047
  6      0.0000     0.0000E+00    0.0000E+00    1.000000E+07  0.00010  6.375E-03    0   0.8902   age070_m22            0.0000     1.4015E+02    10.6770   4.0000    84.9714
  7      0.0000     0.0000E+00    0.0000E+00    1.445000E+07  0.00010  4.874E-03    0   0.8589   age078_m22            0.0000     9.9924E+01     9.1638   3.8507    87.0782
  8      0.0000     0.0000E+00    0.0000E+00    2.512000E+07  0.00010  4.103E-03    0   0.8174   age090_m22            0.0000     4.3435E+01     6.0394   3.4546    92.8909
  9      0.0000     0.0000E+00    0.0000E+00    4.000000E+07  0.00010  3.654E-03    0   0.7830   age104_m22            0.0000     3.6887E+01     4.2903   3.1716    96.9893
 10      0.0000     0.0000E+00    0.0000E+00    5.500000E+07  0.00010  3.093E-03    0   0.7597   age110_m22            0.0000     4.0859E+01     4.0306   3.0700    98.4529
 11      0.0000     0.0000E+00    0.0000E+00    1.015200E+08  0.00010  2.431E-03    0   0.7138   age116_m22            0.0000     5.9785E+01     4.4602   2.7279   101.2214
 12      0.0000     0.0000E+00    0.0000E+00    1.609000E+08  0.00010  1.319E-03    0   0.6775   age120_m22            0.0000     6.5209E+01     4.5255   2.2446   103.7421
 13      0.0000     0.0000E+00    0.0000E+00    2.861200E+08  0.00010  1.075E-03    0   0.6412   age125_m22            0.0000     1.8372E+02     8.3914   2.3090   107.0013
 14      0.0000     0.0000E+00    0.0000E+00    5.088000E+08  0.00010  7.183E-04    0   0.6083   age130_m22            0.0000     2.3105E+02     9.8103   2.0760   108.6816
 15      0.0000     0.0000E+00    0.0000E+00    9.047900E+08  0.00010  4.524E-04    0   0.5785   age135_m22            0.0000     2.3494E+02    10.0311   1.8750   109.8455
 16      0.0000     0.0000E+00    0.0000E+00    1.278050E+09  0.00010  3.018E-04    0   0.5588   age138_m22            0.0000     1.1159E+02     6.9633   1.3460   108.0938
 17      0.0000     0.0000E+00    0.0000E+00    1.434000E+09  0.00010  2.691E-04    0   0.5532   age139_m22            0.0000     9.0477E+01     6.3394   1.1899   107.5206
 18      0.0000     0.0000E+00    0.0000E+00    2.500000E+09  0.00010  1.582E-04    0   0.5296   age150_m22            0.0000     7.5740E+01     5.6458   1.0812   108.1941
 19      0.0000     0.0000E+00    0.0000E+00    4.250000E+09  0.00010  1.007E-04    0   0.5110   age158_m22            0.0000     3.9095E+01     4.1074   0.9259   106.5981
 20      0.0000     0.0000E+00    0.0000E+00    6.250000E+09  0.00010  6.869E-05    0   0.4985   age166_m22            0.0000     1.4533E+01     2.6033   0.8641   103.9582
 21      0.0270     2.5980E-02    2.5394E-02    7.500000E+09  0.00010  5.873E-05    0   0.4931   age171_m22            0.0000     1.1737E+01     2.3480   0.8531   103.4359
 22      0.0000     0.0000E+00    0.0000E+00    1.000000E+10  0.00010  4.481E-05    0   0.4854   age181_m22            0.0000     1.1101E+01     2.3021   0.8144   103.0690
 23      3.6355     5.8920E+00    5.5955E+00    1.300000E+10  0.00010  3.489E-05    0   0.4791   age193_m22            0.0000     9.5108E+00     2.1851   0.7559   102.5355
 24      2.5523     4.7551E+00    4.4923E+00    1.500000E+10  0.00010  3.035E-05    0   0.4766   age201_m22            0.0000     8.5736E+00     2.1141   0.7162   102.3603
 25      1.8660     4.2036E+00    3.9455E+00    1.800000E+10  0.00010  2.510E-05    0   0.4735   age213_m22            0.0000     6.4426E+00     1.9250   0.6464   101.7764
 26      0.0000     0.0000E+00    0.0000E+00    1.000000E+06  0.00040  8.458E-03    0   1.0000   age020_m32            0.0000     1.6195E+02    11.2738   4.0000    82.9212
 27      0.0000     0.0000E+00    0.0000E+00    3.160000E+06  0.00040  3.973E-02    0   1.0000   age045_m32            0.0000     4.8534E+01     6.5221   3.3532    92.9569
 28      0.0000     0.0000E+00    0.0000E+00    5.010000E+06  0.00040  1.935E-02    0   0.9532   age055_m32            0.0000     1.1464E+02     9.9655   3.5779    87.5793
 29      0.0000     0.0000E+00    0.0000E+00    6.610000E+06  0.00040  1.204E-02    0   0.9243   age061_m32            0.0000     1.2848E+02    10.3939   3.8841    85.7851
 30      0.0000     0.0000E+00    0.0000E+00    8.710000E+06  0.00040  9.433E-03    0   0.9001   age067_m32            0.0000     1.1380E+02     9.8171   3.8566    86.5958
 31      0.0000     0.0000E+00    0.0000E+00    1.000000E+07  0.00040  8.053E-03    0   0.8877   age070_m32            0.0000     1.0806E+02     9.5845   3.8205    87.0350
 32      0.0000     0.0000E+00    0.0000E+00    1.445000E+07  0.00040  7.027E-03    0   0.8578   age078_m32            0.0000     6.3386E+01     7.4790   3.3112    91.7677
 33      0.0000     0.0000E+00    0.0000E+00    2.512000E+07  0.00040  4.707E-03    0   0.8166   age090_m32            0.0000     3.8710E+01     5.4906   3.0207    95.3874
 34      0.0000     0.0000E+00    0.0000E+00    4.000000E+07  0.00040  3.714E-03    0   0.7827   age104_m32            0.0000     3.3529E+01     4.1208   2.8256    98.3456
 35      0.0000     0.0000E+00    0.0000E+00    5.500000E+07  0.00040  2.982E-03    0   0.7593   age110_m32            0.0000     3.7868E+01     3.9807   2.7643    99.4361
 36      0.0000     0.0000E+00    0.0000E+00    1.015200E+08  0.00040  2.188E-03    0   0.7143   age116_m32            0.0000     8.9758E+01     5.3864   2.4990   103.5056
 37      0.0000     0.0000E+00    0.0000E+00    1.609000E+08  0.00040  1.690E-03    0   0.6856   age120_m32            0.0000     1.3950E+02     6.9311   2.2971   106.0705
 38      0.0000     0.0000E+00    0.0000E+00    2.861200E+08  0.00040  1.152E-03    0   0.6509   age125_m32            0.0000     1.9527E+02     8.8380   2.0636   108.0605
 39      0.0000     0.0000E+00    0.0000E+00    5.088000E+08  0.00040  7.331E-04    0   0.6182   age130_m32            0.0000     2.1612E+02     9.5878   1.8965   108.7830
 40      0.0000     0.0000E+00    0.0000E+00    9.047900E+08  0.00040  3.960E-04    0   0.5890   age135_m32            0.0000     1.1838E+02     7.4196   1.4279   107.4935
 41      0.0000     0.0000E+00    0.0000E+00    1.278050E+09  0.00040  2.854E-04    0   0.5687   age138_m32            0.0000     8.9726E+01     6.2536   1.1450   109.1696
 42      0.0000     0.0000E+00    0.0000E+00    1.434000E+09  0.00040  2.531E-04    0   0.5632   age139_m32            0.0000     8.6441E+01     6.1264   1.0860   109.1062
 43      1.8321     6.9622E-01    7.4330E-01    2.500000E+09  0.00040  1.488E-04    0   0.5386   age150_m32            0.0000     5.6375E+01     5.1283   0.8280   107.3441
 44      6.3853     3.9755E+00    4.0970E+00    4.250000E+09  0.00040  9.082E-05    0   0.5199   age158_m32            0.0000     1.5021E+01     2.8158   0.7230   104.2016
 45     28.6959     2.5505E+01    2.5662E+01    6.250000E+09  0.00040  6.362E-05    0   0.5076   age166_m32            0.0000     2.7523E+00     1.4932   0.6769   101.0033
 46     35.6081     3.8069E+01    3.7934E+01    7.500000E+09  0.00040  5.289E-05    0   0.5027   age171_m32            0.0000     2.9991E+00     1.5581   0.6368    99.8104
 47      0.0000     0.0000E+00    0.0000E+00    1.000000E+10  0.00040  3.972E-05    0   0.4948   age181_m32            0.0000     4.3188E+00     1.7878   0.5705    98.4946
 48      0.0000     0.0000E+00    0.0000E+00    1.300000E+10  0.00040  3.283E-05    0   0.4870   age193_m32            0.0000     5.3240E+00     1.9733   0.5310   101.1051
 49      0.0000     0.0000E+00    0.0000E+00    1.500000E+10  0.00040  2.925E-05    0   0.4854   age201_m32            0.0000     9.0973E+00     2.4449   0.5157   102.6199
 50      0.0000     0.0000E+00    0.0000E+00    1.800000E+10  0.00040  2.469E-05    0   0.4819   age213_m32            0.0000     1.1568E+01     2.7273   0.4768   103.1069
 51      0.0000     0.0000E+00    0.0000E+00    1.000000E+06  0.00400  1.114E-02    0   1.0000   age020_m42            0.0000     1.5216E+02    11.0281   3.9941    82.2428
 52      0.0000     1.6004E-08    3.1721E-08    3.160000E+06  0.00400  4.073E-02    0   0.9999   age045_m42            0.0000     2.8529E+01     4.9056   3.0605    95.4130
 53      0.0000     0.0000E+00    0.0000E+00    5.010000E+06  0.00400  2.534E-02    0   0.9488   age055_m42            0.0000     7.2099E+01     7.9711   3.4523    89.6060
 54      0.0000     6.6976E-08    1.2240E-07    6.610000E+06  0.00400  2.583E-02    0   0.9220   age061_m42            0.0000     2.7427E+01     4.3259   2.8818    95.9932
 55      0.0000     0.0000E+00    0.0000E+00    8.710000E+06  0.00400  1.706E-02    0   0.8983   age067_m42            0.0000     4.1250E+01     5.9308   2.7096    94.3700
 56      0.0000     0.0000E+00    0.0000E+00    1.000000E+07  0.00400  1.271E-02    0   0.8862   age070_m42            0.0000     6.3912E+01     7.5430   2.6991    93.0643
 57      0.0000     0.0000E+00    0.0000E+00    1.445000E+07  0.00400  7.666E-03    0   0.8571   age078_m42            0.0000     8.6111E+01     8.4889   3.0853    90.1597
 58      0.0000     0.0000E+00    0.0000E+00    2.512000E+07  0.00400  5.070E-03    0   0.8174   age090_m42            0.0000     5.1497E+01     6.8360   2.5616    94.8698
 59      0.0000     0.0000E+00    0.0000E+00    4.000000E+07  0.00400  3.505E-03    0   0.7851   age104_m42            0.0000     2.8275E+01     5.0523   2.2373    97.8903
 60      0.0000     0.0000E+00    0.0000E+00    5.500000E+07  0.00400  3.059E-03    0   0.7629   age110_m42            0.0000     3.3121E+01     3.5392   2.2971   102.0128
 61      0.0000     0.0000E+00    0.0000E+00    1.015200E+08  0.00400  2.268E-03    0   0.7207   age116_m42            0.0000     1.2260E+02     6.6791   2.2085   106.8123
 62      0.0000     0.0000E+00    0.0000E+00    1.609000E+08  0.00400  1.720E-03    0   0.6930   age120_m42            0.0000     1.3965E+02     7.4951   2.0642   108.4590
 63      0.0000     0.0000E+00    0.0000E+00    2.861200E+08  0.00400  1.079E-03    0   0.6613   age125_m42            0.0000     1.5050E+02     7.9327   1.7110   108.9007
 64      0.0000     0.0000E+00    0.0000E+00    5.088000E+08  0.00400  6.261E-04    0   0.6313   age130_m42            0.0000     1.7261E+02     8.5783   1.5210   111.6103
 65      0.0000     0.0000E+00    0.0000E+00    9.047900E+08  0.00400  3.535E-04    0   0.6024   age135_m42            0.0000     1.0238E+02     7.0139   1.1185   111.7938
 66      0.0000     0.0000E+00    0.0000E+00    1.278050E+09  0.00400  2.677E-04    0   0.5837   age138_m42            0.0000     6.4497E+01     6.5335   0.4220   109.1336
 67      0.0000     0.0000E+00    0.0000E+00    1.434000E+09  0.00400  1.910E-04    0   0.5716   age139_m42            0.0000     6.5428E+01     6.4081   0.5911   110.0956
 68      0.0000     0.0000E+00    0.0000E+00    2.500000E+09  0.00400  9.818E-05    0   0.5463   age150_m42            0.0000     4.7224E+01     5.6110   0.3117   105.2883
 69      0.0000     0.0000E+00    0.0000E+00    4.250000E+09  0.00400  5.491E-05    0   0.5269   age158_m42            0.0000     5.2436E+01     5.7285   0.1880   102.4756
 70      0.0000     0.0000E+00    0.0000E+00    6.250000E+09  0.00400  3.857E-05    0   0.5151   age166_m42            0.0000     7.0958E+01     6.4507   0.0605   101.0185
 71      0.0000     0.0000E+00    0.0000E+00    7.500000E+09  0.00400  3.243E-05    0   0.5110   age171_m42            0.0000     8.5015E+01     6.9416  -0.0183   100.3941
 72      0.0000     0.0000E+00    0.0000E+00    1.000000E+10  0.00400  2.424E-05    0   0.5028   age181_m42            0.0000     1.0530E+02     7.5829  -0.0971    99.6662
 73      0.0000     0.0000E+00    0.0000E+00    1.300000E+10  0.00400  1.883E-05    0   0.4927   age193_m42            0.0000     1.2146E+02     8.0775  -0.1362    99.3146
 74      0.0000     0.0000E+00    0.0000E+00    1.500000E+10  0.00400  1.685E-05    0   0.4919   age201_m42            0.0000     1.1679E+02     7.9551  -0.1309    99.3597
 75      0.0000     0.0000E+00    0.0000E+00    1.800000E+10  0.00400  1.452E-05    0   0.4874   age213_m42            0.0000     1.0833E+02     7.7268  -0.1138    99.6546
 76      0.0000     0.0000E+00    0.0000E+00    1.000000E+06  0.00800  1.286E-02    0   1.0000   age020_m52            0.0000     1.2951E+02    10.3309   3.9726    84.0047
 77      0.0000     0.0000E+00    0.0000E+00    3.160000E+06  0.00800  3.147E-02    0   0.9966   age045_m52            0.0000     1.2412E+02    10.1830   3.8899    85.4864
 78      0.0000     0.0000E+00    0.0000E+00    5.010000E+06  0.00800  2.664E-02    0   0.9443   age055_m52            0.0000     8.7323E+01     8.6654   3.5624    88.8093
 79      0.0000     0.0000E+00    0.0000E+00    6.610000E+06  0.00800  2.151E-02    0   0.9177   age061_m52            0.0000     4.5219E+01     6.3723   2.2720    95.1824
 80      0.0000     0.0000E+00    0.0000E+00    8.710000E+06  0.00800  1.628E-02    0   0.8948   age067_m52            0.0000     4.6679E+01     6.5122   2.6556    95.2306
 81      0.0000     0.0000E+00    0.0000E+00    1.000000E+07  0.00800  1.215E-02    0   0.8827   age070_m52            0.0000     6.0818E+01     7.3928   2.9941    93.4229
 82      0.0000     0.0000E+00    0.0000E+00    1.445000E+07  0.00800  8.739E-03    0   0.8552   age078_m52            0.0000     5.0092E+01     6.5595   3.0362    94.5324
 83      0.0000     0.0000E+00    0.0000E+00    2.512000E+07  0.00800  5.676E-03    0   0.8162   age090_m52            0.0000     4.0914E+01     5.0051   2.6534    98.8386
 84      0.0000     0.0000E+00    0.0000E+00    4.000000E+07  0.00800  3.939E-03    0   0.7841   age104_m52            0.0000     4.1701E+01     4.2273   2.4894   101.2557
 85      0.0000     0.0000E+00    0.0000E+00    5.500000E+07  0.00800  3.155E-03    0   0.7627   age110_m52            0.0000     5.3542E+01     4.1789   2.4538   102.9477
 86      0.0000     0.0000E+00    0.0000E+00    1.015200E+08  0.00800  2.206E-03    0   0.7226   age116_m52            0.0000     9.3263E+01     5.6172   2.2638   106.7120
 87      0.0000     0.0000E+00    0.0000E+00    1.609000E+08  0.00800  1.596E-03    0   0.6963   age120_m52            0.0000     1.1825E+02     6.7066   2.0481   108.3602
 88      0.0000     0.0000E+00    0.0000E+00    2.861200E+08  0.00800  1.002E-03    0   0.6665   age125_m52            0.0000     1.9113E+02     9.3520   1.7508   111.1279
 89      0.0000     0.0000E+00    0.0000E+00    5.088000E+08  0.00800  5.759E-04    0   0.6377   age130_m52            0.0000     2.1150E+02    10.4486   1.3985   115.1026
 90      0.0000     0.0000E+00    0.0000E+00    9.047900E+08  0.00800  2.972E-04    0   0.6086   age135_m52            0.0000     1.3399E+02     8.8575   0.8472   113.9858
 91      0.0000     0.0000E+00    0.0000E+00    1.278050E+09  0.00800  2.242E-04    0   0.5907   age138_m52            0.0000     8.9885E+01     7.5666   0.2332   112.3984
 92      0.0000     0.0000E+00    0.0000E+00    1.434000E+09  0.00800  1.645E-04    0   0.5787   age139_m52            0.0000     7.4134E+01     6.9060   0.3831   111.8339
 93      0.0000     0.0000E+00    0.0000E+00    2.500000E+09  0.00800  7.723E-05    0   0.5519   age150_m52            0.0000     8.3297E+01     7.1457   0.0395   107.9092
 94      0.0000     0.0000E+00    0.0000E+00    4.250000E+09  0.00800  4.151E-05    0   0.5320   age158_m52            0.0000     8.8455E+01     7.2053  -0.0300   105.2262
 95      0.0000     0.0000E+00    0.0000E+00    6.250000E+09  0.00800  3.010E-05    0   0.5197   age166_m52            0.0000     1.2326E+02     8.2198  -0.2253   103.6929
 96      0.0000     0.0000E+00    0.0000E+00    7.500000E+09  0.00800  2.467E-05    0   0.5139   age171_m52            0.0000     1.3350E+02     8.4904  -0.2679   103.2580
 97      0.0000     0.0000E+00    0.0000E+00    1.000000E+10  0.00800  1.862E-05    0   0.5054   age181_m52            0.0000     1.6694E+02     9.3448  -0.4004   102.7881
 98      0.0000     0.0000E+00    0.0000E+00    1.300000E+10  0.00800  1.433E-05    0   0.4988   age193_m52            0.0000     2.0593E+02    10.2792  -0.4975   103.3504
 99      0.0000     0.0000E+00    0.0000E+00    1.500000E+10  0.00800  1.244E-05    0   0.4936   age201_m52            0.0000     2.2200E+02    10.6417  -0.5264   103.7839
100      0.0000     0.0000E+00    0.0000E+00    1.800000E+10  0.00800  1.070E-05    0   0.4888   age213_m52            0.0000     2.3381E+02    10.9048  -0.5607   103.5873
101      0.0000     0.0000E+00    0.0000E+00    1.000000E+06  0.02000  1.989E-02    0   1.0000   age020_m62            0.0000     1.5258E+02    10.9428   3.9521    83.1572
102      0.0000     0.0000E+00    0.0000E+00    3.160000E+06  0.02000  3.772E-02    0   0.9858   age045_m62            0.0000     1.3605E+02    10.5002   3.8159    85.2746
103      0.0000     0.0000E+00    0.0000E+00    5.010000E+06  0.02000  3.227E-02    0   0.9342   age055_m62            0.0000     4.9891E+01     6.5129   3.3112    92.2745
104      0.0000     0.0000E+00    0.0000E+00    6.610000E+06  0.02000  2.387E-02    0   0.9090   age061_m62            0.0000     7.9659E+01     8.3381   3.0711    91.8894
105      0.0000     0.0000E+00    0.0000E+00    8.710000E+06  0.02000  1.102E-02    0   0.8861   age067_m62            0.0000     2.4854E+02    14.5574   2.7169    87.8463
106      0.0000     0.0000E+00    0.0000E+00    1.000000E+07  0.02000  1.011E-02    0   0.8751   age070_m62            0.0000     1.6266E+02    11.8470   2.7302    90.1809
107      0.0000     0.0000E+00    0.0000E+00    1.445000E+07  0.02000  7.331E-03    0   0.8472   age078_m62            0.0000     1.0722E+02     9.6624   2.7347    91.6104
108      0.0000     0.0000E+00    0.0000E+00    2.512000E+07  0.02000  4.206E-03    0   0.8099   age090_m62            0.0000     1.0876E+02     9.8061   2.6370    91.3241
109      0.0000     0.0000E+00    0.0000E+00    4.000000E+07  0.02000  3.373E-03    0   0.7799   age104_m62            0.0000     3.4902E+01     4.8454   2.4405    99.6349
110      0.0000     0.0000E+00    0.0000E+00    5.500000E+07  0.02000  2.747E-03    0   0.7595   age110_m62            0.0000     4.6451E+01     4.2157   2.3747   102.9202
111      0.0000     0.0000E+00    0.0000E+00    1.015200E+08  0.02000  1.878E-03    0   0.7221   age116_m62            0.0000     1.1178E+02     5.9670   2.2373   107.5302
112      0.0000     0.0000E+00    0.0000E+00    1.609000E+08  0.02000  1.378E-03    0   0.6978   age120_m62            0.0000     1.6802E+02     7.8434   2.0828   110.0436
113      0.0000     0.0000E+00    0.0000E+00    2.861200E+08  0.02000  8.869E-04    0   0.6700   age125_m62            0.0000     2.6452E+02    10.6193   1.7147   114.2359
114      0.0000     0.0000E+00    0.0000E+00    5.088000E+08  0.02000  4.834E-04    0   0.6430   age130_m62            0.0000     2.3667E+02    10.9655   1.2647   116.6591
115      0.0000     0.0000E+00    0.0000E+00    9.047900E+08  0.02000  2.312E-04    0   0.6152   age135_m62            0.0000     1.1791E+02     8.4443   0.6509   115.9586
116      0.0000     0.0000E+00    0.0000E+00    1.278050E+09  0.02000  1.387E-04    0   0.5927   age138_m62            0.0000     7.4361E+01     6.9382   0.2654   111.5278
117      0.0000     0.0000E+00    0.0000E+00    1.434000E+09  0.02000  1.168E-04    0   0.5865   age139_m62            0.0000     7.1425E+01     6.7831   0.2369   109.9054
118      0.0000     0.0000E+00    0.0000E+00    2.500000E+09  0.02000  5.505E-05    0   0.5610   age150_m62            0.0000     1.0837E+02     8.0250  -0.1401   106.7362
119      0.0000     0.0000E+00    0.0000E+00    4.250000E+09  0.02000  3.070E-05    0   0.5407   age158_m62            0.0000     1.8178E+02     9.9536  -0.4427   106.5869
120      0.0000     0.0000E+00    0.0000E+00    6.250000E+09  0.02000  2.104E-05    0   0.5277   age166_m62            0.0000     2.2752E+02    10.9210  -0.5762   106.9446
121      0.0000     0.0000E+00    0.0000E+00    7.500000E+09  0.02000  1.770E-05    0   0.5223   age171_m62            0.0000     2.5180E+02    11.4314  -0.6664   107.3218
122      0.0000     0.0000E+00    0.0000E+00    1.000000E+10  0.02000  1.297E-05    0   0.5121   age181_m62            0.0000     3.0534E+02    12.4746  -0.8285   107.8022
123      0.0000     0.0000E+00    0.0000E+00    1.300000E+10  0.02000  9.691E-06    0   0.5047   age193_m62            0.0000     3.4346E+02    13.1841  -0.9141   108.1715
124      0.0000     0.0000E+00    0.0000E+00    1.500000E+10  0.02000  8.360E-06    0   0.4999   age201_m62            0.0000     3.7607E+02    13.7588  -0.9876   108.4225
125      0.0000     0.0000E+00    0.0000E+00    1.800000E+10  0.02000  6.911E-06    0   0.4946   age213_m62            0.0000     4.1865E+02    14.3084  -1.0000   107.1739
126      0.0000     0.0000E+00    0.0000E+00    1.000000E+06  0.05000  2.651E-02    0   0.9998   age020_m72            0.0000     1.4295E+02    10.5663   3.9503    84.0586
127      0.0000     0.0000E+00    0.0000E+00    3.160000E+06  0.05000  4.817E-02    0   0.9577   age045_m72            0.0000     9.8036E+01     8.9729   3.6700    88.3488
128      0.0000     0.0000E+00    0.0000E+00    5.010000E+06  0.05000  3.101E-02    0   0.9147   age055_m72            0.0000     8.5033E+01     8.4723   3.3326    90.9313
129      0.0000     0.0000E+00    0.0000E+00    6.610000E+06  0.05000  1.472E-02    0   0.8877   age061_m72            0.0000     1.8320E+02    12.1206   2.9238    89.3399
130      0.0000     0.0000E+00    0.0000E+00    8.710000E+06  0.05000  1.050E-02    0   0.8638   age067_m72            0.0000     1.2224E+02     9.8038   3.2934    89.8278
131      0.0000     0.0000E+00    0.0000E+00    1.000000E+07  0.05000  8.954E-03    0   0.8524   age070_m72            0.0000     9.1084E+01     8.4646   3.5514    89.8655
132      0.0000     0.0000E+00    0.0000E+00    1.445000E+07  0.05000  6.392E-03    0   0.8262   age078_m72            0.0000     7.6705E+01     7.7525   3.4930    90.9429
133      0.0000     0.0000E+00    0.0000E+00    2.512000E+07  0.05000  4.207E-03    0   0.7902   age090_m72            0.0000     4.3266E+01     5.6543   3.1178    95.3636
134      0.0000     0.0000E+00    0.0000E+00    4.000000E+07  0.05000  3.198E-03    0   0.7618   age104_m72            0.0000     6.7150E+01     4.6913   2.6105   103.1572
135      0.0000     0.0000E+00    0.0000E+00    5.500000E+07  0.05000  2.593E-03    0   0.7432   age110_m72            0.0000     9.0184E+01     5.3777   2.5232   104.9943
136      0.0000     0.0000E+00    0.0000E+00    1.015200E+08  0.05000  1.716E-03    0   0.7092   age116_m72            0.0000     1.3971E+02     6.8598   2.3304   107.6061
137      0.0000     0.0000E+00    0.0000E+00    1.609000E+08  0.05000  1.218E-03    0   0.6876   age120_m72            0.0000     1.9998E+02     8.8381   2.0568   110.3702
138      0.0000     0.0000E+00    0.0000E+00    2.861200E+08  0.05000  7.047E-04    0   0.6618   age125_m72            0.0000     2.5435E+02    11.0539   1.5086   114.4555
139      0.0000     0.0000E+00    0.0000E+00    5.088000E+08  0.05000  3.590E-04    0   0.6356   age130_m72            0.0000     2.0120E+02    10.7179   0.9172   117.2806
140      0.0000     0.0000E+00    0.0000E+00    9.047900E+08  0.05000  1.484E-04    0   0.6088   age135_m72            0.0000     1.0876E+02     8.3606   0.1653   110.7702
141      0.0000     0.0000E+00    0.0000E+00    1.278050E+09  0.05000  9.435E-05    0   0.5924   age138_m72            0.0000     1.5015E+02     9.3831  -0.2492   107.6556
142      0.0000     0.0000E+00    0.0000E+00    1.434000E+09  0.05000  7.827E-05    0   0.5847   age139_m72            0.0000     1.4911E+02     9.2414  -0.2332   106.9766
143      0.0000     0.0000E+00    0.0000E+00    2.500000E+09  0.05000  3.759E-05    0   0.5583   age150_m72            0.0000     2.2115E+02    10.8057  -0.5635   106.1455
144      1.3132     4.0311E+00    4.2941E+00    4.250000E+09  0.05000  1.842E-05    0   0.5374   age158_m72            0.0000     3.0132E+02    12.3377  -0.8727   105.5236
145      0.9921     4.6475E+00    4.8291E+00    6.250000E+09  0.05000  1.207E-05    0   0.5242   age166_m72            0.0000     3.8625E+02    13.5370  -1.0000   102.5331
146      0.9091     5.1442E+00    5.2850E+00    7.500000E+09  0.05000  9.993E-06    0   0.5183   age171_m72            0.0000     4.0241E+02    13.7212  -1.0000   101.4681
147      0.3904     3.0279E+00    3.0495E+00    1.000000E+10  0.05000  7.291E-06    0   0.5081   age181_m72            0.0000     4.7965E+02    14.8529  -1.0000    98.3660
148      0.0000     0.0000E+00    0.0000E+00    1.300000E+10  0.05000  5.316E-06    0   0.5018   age193_m72            0.0000     6.1843E+02    17.0524  -1.0000    93.6933
149      0.0005     6.7161E-03    6.6191E-03    1.500000E+10  0.05000  4.497E-06    0   0.4972   age201_m72            0.0000     6.8797E+02    18.0920  -1.0000    92.0626
150      0.0000     0.0000E+00    0.0000E+00    1.800000E+10  0.05000  3.739E-06    0   0.4924   age213_m72            0.0000     7.8750E+02    19.4390  -1.0000    89.5019


## Synthesis Results - Average & Chains ##

# j      x_j: min, <> & last-chain-values for 1 ...  7 chains
  1      0.0000      0.0290      0.0000      0.0000      0.0000      0.0000      0.0000      0.0000      0.0000
  2     16.4783      7.6761      8.5075      8.8155      8.9251      9.7009      8.7605      8.9835      9.6716
  3      0.2623      0.4675      0.4813      0.5580      0.4427      0.7672      0.5993      0.5112      0.4274
  4      0.0000      0.0135      0.0309      0.0000      0.1504      0.0196      0.0000      0.0000      0.0000
  5      0.0000      0.0082      0.0000      0.0000      0.0000      0.0000      0.0000      0.0000      0.0000
  6      0.0000      0.0136      0.0460      0.0000      0.0000      0.0000      0.0000      0.0000      0.0000
  7      0.0000      0.0146      0.0000      0.0000      0.0000      0.0000      0.0000      0.0000      0.0000
  8      0.0000      0.0198      0.0000      0.0000      0.0000      0.0000      0.0000      0.0000      0.0000
  9      0.0000      0.1584      0.0000      0.2158      0.2495      0.0000      0.1241      0.0000      0.3886
 10      0.0000      0.0701      0.0000      0.0000      0.0020      0.2100      0.0000      0.0000      0.1113
 11      0.0000      0.0578      0.0000      0.0331      0.0000      0.0000      0.0000      0.0000      0.0000
 12      0.0000      0.0426      0.0717      0.3183      0.0020      0.0000      0.0232      0.1887      0.0058
 13      0.0000      0.0254      0.0000      0.0000      0.0000      0.0000      0.0000      0.0000      0.0000
 14      0.0000      0.0160      0.0175      0.0000      0.1611      0.1240      0.0000      0.0000      0.0000
 15      0.0000      0.0188      0.0000      0.0000      0.0000      0.0000      0.0000      0.0000      0.0000
 16      0.0000      0.0310      0.0000      0.0004      0.0000      0.0000      0.0000      0.0000      0.0000
 17      0.0000      0.0338      0.0000      0.0802      0.0000      0.0000      0.0000      0.0000      0.0648
 18      0.0000      0.0373      0.0031      0.0000      0.0000      0.0000      0.0000      0.0123      0.0000
 19      0.0000      0.0769      0.2924      0.0000      0.0461      0.0161      0.0767      0.0000      0.0000
 20      0.0000      0.2362      0.0019      0.5353      0.0840      0.1222      0.6281      0.0000      0.0000
 21      0.0270      0.4269      0.1083      0.0000      0.6236      0.3159      0.5228      0.3532      0.1122
 22      0.0000      0.5278      0.0000      0.6786      0.0237      0.1162      0.3301      0.8029      0.8106
 23      3.6355      1.1353      1.2745      2.3680      1.1289      1.4541      1.3716      1.4715      1.1866
 24      2.5523      1.5206      1.9169      0.5614      1.8379      0.2613      1.6950      1.1978      2.1550
 25      1.8660      2.0048      1.9210      2.0538      3.8104      1.6933      2.2724      2.1875      2.8499
 26      0.0000      0.0205      0.0000      0.0000      0.0000      0.0000      0.0000      0.0699      0.0000
 27      0.0000      0.2837      0.3258      0.2127      0.2833      0.0000      0.3078      0.2111      0.0000
 28      0.0000      0.0372      0.1975      0.0000      0.0000      0.0000      0.0000      0.0000      0.0000
 29      0.0000      0.0201      0.0000      0.0000      0.0000      0.0000      0.0000      0.0918      0.0000
 30      0.0000      0.0123      0.0000      0.0000      0.0000      0.0000      0.0000      0.0000      0.0000
 31      0.0000      0.0173      0.0000      0.0000      0.0000      0.0000      0.0000      0.0000      0.0000
 32      0.0000      0.0270      0.0000      0.0000      0.0000      0.0000      0.2092      0.0000      0.0000
 33      0.0000      0.0321      0.0000      0.0000      0.0491      0.0000      0.0791      0.0950      0.0000
 34      0.0000      0.0448      0.0000      0.0000      0.1746      0.0277      0.0000      0.0000      0.0000
 35      0.0000      0.0345      0.0000      0.1335      0.0000      0.0019      0.0000      0.0000      0.0000
 36      0.0000      0.0335      0.0619      0.0125      0.0000      0.0000      0.0000      0.0000      0.0000
 37      0.0000      0.0463      0.0480      0.1452      0.0105      0.0000      0.0028      0.0235      0.0000
 38      0.0000      0.0227      0.0000      0.0000      0.0000      0.0000      0.0000      0.0000      0.0000
 39      0.0000      0.0203      0.0191      0.0000      0.0000      0.1352      0.0181      0.0000      0.0000
 40      0.0000      0.0208      0.0000      0.0530      0.0000      0.0000      0.0000      0.0000      0.0000
 41      0.0000      0.0368      0.0000      0.0000      0.0000      0.0000      0.3215      0.1236      0.0000
 42      0.0000      0.0599      0.0000      0.0023      0.0000      0.0000      0.0000      0.0000      0.0000
 43      1.8321      0.3652      1.1408      0.0000      0.0643      0.4947      0.0000      1.1105      0.1630
 44      6.3853      6.5345      6.8334      6.7021      6.9252      7.8930      6.6486      6.8811      6.3304
 45     28.6959     35.3923     34.5210     34.7187     35.3518     36.0447     35.4445     34.2294     34.5571
 46     35.6081     37.6411     37.5038     37.9659     36.7118     37.5391     37.2953     37.5214     37.7160
 47      0.0000      0.2697      0.5729      0.0000      0.0543      0.0000      0.3247      0.4032      0.0000
 48      0.0000      0.2783      0.3404      0.3730      0.0000      0.1692      0.0238      0.1321      0.0617
 49      0.0000      0.2180      0.0975      0.0000      0.0000      0.0000      0.0000      0.1593      0.6203
 50      0.0000      0.1853      0.0000      0.4180      0.0000      0.0000      0.2026      0.0000      0.0000
 51      0.0000      0.0107      0.0000      0.0000      0.0000      0.0000      0.0000      0.0000      0.1330
 52      0.0000      0.2152      0.8090      0.2204      0.2050      0.2801      0.1869      0.5865      0.0000
 53      0.0000      0.0213      0.0000      0.0000      0.0000      0.0000      0.1428      0.0564      0.0000
 54      0.0000      0.4455      0.1757      0.7185      0.4664      0.4881      0.3928      0.3826      0.3981
 55      0.0000      0.0679      0.0000      0.0347      0.0000      0.0000      0.0421      0.0000      0.1323
 56      0.0000      0.0280      0.0000      0.0000      0.0000      0.0000      0.0464      0.0000      0.1297
 57      0.0000      0.0147      0.0000      0.0000      0.0000      0.0000      0.0492      0.0000      0.0000
 58      0.0000      0.0168      0.0000      0.0000      0.0000      0.0000      0.0000      0.0000      0.0000
 59      0.0000      0.0153      0.0000      0.0000      0.0447      0.0173      0.0000      0.0000      0.0000
 60      0.0000      0.0159      0.0000      0.0000      0.0000      0.0000      0.0000      0.0000      0.0000
 61      0.0000      0.0259      0.0000      0.0000      0.0000      0.0000      0.0000      0.0000      0.0000
 62      0.0000      0.0357      0.0146      0.0262      0.0000      0.0000      0.0850      0.0000      0.0000
 63      0.0000      0.0278      0.0000      0.0000      0.0000      0.1012      0.0000      0.0000      0.0000
 64      0.0000      0.0301      0.3503      0.0000      0.0000      0.0000      0.0000      0.0596      0.0000
 65      0.0000      0.0358      0.0000      0.0000      0.0000      0.0000      0.0000      0.0000      0.0107
 66      0.0000      0.0205      0.0000      0.0000      0.0000      0.0000      0.0000      0.0000      0.0000
 67      0.0000      0.0279      0.0000      0.0000      0.0000      0.0000      0.0000      0.0945      0.0000
 68      0.0000      0.0272      0.0000      0.0000      0.0000      0.0000      0.0000      0.0000      0.0377
 69      0.0000      0.0300      0.0000      0.0000      0.0000      0.0000      0.0584      0.0000      0.0000
 70      0.0000      0.0322      0.0000      0.0145      0.0000      0.0000      0.0000      0.0000      0.0363
 71      0.0000      0.0283      0.0000      0.0135      0.0202      0.0000      0.0000      0.0000      0.0144
 72      0.0000      0.0445      0.0141      0.0000      0.0000      0.0000      0.0000      0.1818      0.1071
 73      0.0000      0.0242      0.0000      0.0000      0.0117      0.0000      0.0000      0.0000      0.0117
 74      0.0000      0.0216      0.1358      0.0000      0.0000      0.0000      0.0000      0.0000      0.0000
 75      0.0000      0.0229      0.0000      0.0000      0.0000      0.0000      0.0155      0.0457      0.0000
 76      0.0000      0.0099      0.0000      0.0000      0.0000      0.0000      0.0000      0.0000      0.0000
 77      0.0000      0.0111      0.0000      0.0000      0.0000      0.0000      0.0000      0.0000      0.0000
 78      0.0000      0.0140      0.0000      0.0230      0.0000      0.0000      0.0000      0.0000      0.0000
 79      0.0000      0.0169      0.0000      0.0000      0.0000      0.0000      0.0000      0.0000      0.0000
 80      0.0000      0.0179      0.2320      0.0000      0.0000      0.0000      0.0000      0.0000      0.0547
 81      0.0000      0.0102      0.0000      0.0000      0.0000      0.0000      0.0000      0.0046      0.0000
 82      0.0000      0.0174      0.1377      0.0000      0.0000      0.0000      0.0000      0.0000      0.0000
 83      0.0000      0.0605      0.0000      0.1211      0.0338      0.0000      0.0000      0.0121      0.0434
 84      0.0000      0.0473      0.0000      0.0000      0.0214      0.0254      0.0000      0.1157      0.0160
 85      0.0000      0.0318      0.0000      0.0178      0.0565      0.0000      0.0000      0.0000      0.0000
 86      0.0000      0.0236      0.0000      0.0000      0.0000      0.1284      0.0000      0.0000      0.0000
 87      0.0000      0.0261      0.0000      0.0000      0.0000      0.0000      0.0000      0.0000      0.0000
 88      0.0000      0.0139      0.0084      0.0000      0.0000      0.0000      0.0000      0.0000      0.0000
 89      0.0000      0.0073      0.0000      0.0327      0.0000      0.0000      0.0000      0.0168      0.0000
 90      0.0000      0.0081      0.0000      0.0000      0.0000      0.0000      0.0000      0.0000      0.0247
 91      0.0000      0.0071      0.0000      0.0000      0.0000      0.0000      0.0000      0.0000      0.0000
 92      0.0000      0.0062      0.0000      0.0000      0.0000      0.0000      0.0000      0.0000      0.0000
 93      0.0000      0.0122      0.0000      0.0000      0.0000      0.0000      0.0069      0.0224      0.0000
 94      0.0000      0.0148      0.0000      0.0000      0.0000      0.0000      0.0000      0.0000      0.0000
 95      0.0000      0.0134      0.0000      0.0000      0.0000      0.0000      0.0000      0.0000      0.0000
 96      0.0000      0.0145      0.0000      0.0107      0.0000      0.0000      0.0000      0.0000      0.0000
 97      0.0000      0.0114      0.0000      0.0000      0.0000      0.0000      0.0000      0.0000      0.0000
 98      0.0000      0.0087      0.0000      0.0000      0.0000      0.0000      0.0000      0.0000      0.0000
 99      0.0000      0.0082      0.0000      0.0000      0.0000      0.0000      0.0000      0.0000      0.0000
100      0.0000      0.0081      0.0077      0.0000      0.0000      0.0000      0.0029      0.0000      0.0087
101      0.0000      0.0057      0.0000      0.0000      0.0000      0.0000      0.0000      0.0032      0.0000
102      0.0000      0.0076      0.0000      0.0000      0.0000      0.0000      0.0000      0.0000      0.0000
103      0.0000      0.0312      0.0000      0.0000      0.0000      0.0000      0.0000      0.0000      0.0000
104      0.0000      0.0155      0.0331      0.0000      0.0160      0.0000      0.0000      0.0000      0.0000
105      0.0000      0.0070      0.0000      0.0000      0.0000      0.0000      0.0000      0.0000      0.0000
106      0.0000      0.0120      0.0000      0.0000      0.0000      0.0000      0.0000      0.0000      0.0000
107      0.0000      0.0103      0.0000      0.0000      0.0000      0.0000      0.0000      0.0000      0.0000
108      0.0000      0.0072      0.0000      0.0000      0.0000      0.0000      0.0007      0.0000      0.0000
109      0.0000      0.0123      0.0000      0.0000      0.0000      0.0000      0.0000      0.0000      0.0000
110      0.0000      0.0116      0.0000      0.0000      0.0000      0.0000      0.0014      0.0000      0.0000
111      0.0000      0.0139      0.0190      0.0000      0.0424      0.0000      0.0000      0.0000      0.0000
112      0.0000      0.0111      0.0000      0.0000      0.0000      0.0000      0.0000      0.0000      0.0000
113      0.0000      0.0065      0.0000      0.0000      0.0000      0.0000      0.0000      0.0000      0.0000
114      0.0000      0.0051      0.0000      0.0000      0.0000      0.0000      0.0000      0.0000      0.0000
115      0.0000      0.0069      0.0000      0.0000      0.0000      0.0000      0.0000      0.0000      0.0000
116      0.0000      0.0085      0.0000      0.0000      0.0000      0.0000      0.0000      0.0000      0.0125
117      0.0000      0.0083      0.0000      0.0000      0.0000      0.0134      0.0103      0.0000      0.0000
118      0.0000      0.0073      0.0097      0.0029      0.0000      0.1015      0.0000      0.0000      0.0000
119      0.0000      0.0066      0.0000      0.0000      0.0000      0.0000      0.0000      0.0000      0.0000
120      0.0000      0.0058      0.0000      0.0000      0.0000      0.0000      0.0000      0.0000      0.0000
121      0.0000      0.0044      0.0000      0.0000      0.0000      0.0000      0.0000      0.0000      0.0000
122      0.0000      0.0044      0.0000      0.0000      0.0000      0.0000      0.0000      0.0000      0.0210
123      0.0000      0.0067      0.0000      0.0000      0.0000      0.0000      0.0000      0.0000      0.0000
124      0.0000      0.0072      0.0000      0.0000      0.0000      0.0000      0.0000      0.0000      0.0000
125      0.0000      0.0056      0.0000      0.0000      0.0000      0.0000      0.0000      0.0000      0.0000
126      0.0000      0.0052      0.0000      0.0000      0.0000      0.0000      0.0000      0.0011      0.0000
127      0.0000      0.0095      0.0000      0.0000      0.0001      0.0000      0.0000      0.0000      0.0000
128      0.0000      0.0117      0.0000      0.0000      0.0000      0.0000      0.0000      0.0000      0.0043
129      0.0000      0.0292      0.0000      0.0000      0.0125      0.0987      0.0132      0.0000      0.0073
130      0.0000      0.0069      0.0325      0.0000      0.0000      0.0000      0.0000      0.0000      0.0000
131      0.0000      0.0062      0.0000      0.0000      0.0000      0.0000      0.0000      0.0000      0.0000
132      0.0000      0.0074      0.0000      0.0000      0.0000      0.0000      0.0000      0.0448      0.0000
133      0.0000      0.0071      0.0000      0.0000      0.0000      0.0000      0.0000      0.0000      0.0000
134      0.0000      0.0133      0.0000      0.0000      0.0000      0.0000      0.0000      0.0000      0.0000
135      0.0000      0.0124      0.0034      0.0000      0.0000      0.0000      0.0000      0.0000      0.0000
136      0.0000      0.0172      0.0000      0.0000      0.0000      0.0000      0.0000      0.0000      0.0000
137      0.0000      0.0101      0.0000      0.0000      0.0000      0.0000      0.0000      0.0000      0.0000
138      0.0000      0.0092      0.0000      0.0000      0.0000      0.0000      0.0000      0.0000      0.0000
139      0.0000      0.0056      0.0000      0.0000      0.0000      0.0541      0.0000      0.0000      0.0034
140      0.0000      0.0074      0.0000      0.0000      0.0000      0.0000      0.0000      0.0000      0.0000
141      0.0000      0.0066      0.0000      0.0000      0.0000      0.0000      0.0000      0.0000      0.0000
142      0.0000      0.0106      0.0000      0.0000      0.1074      0.0291      0.0000      0.0000      0.0000
143      0.0000      0.0121      0.0487      0.0000      0.0000      0.0319      0.0079      0.0000      0.0000
144      1.3132      0.4475      0.5375      0.4673      0.5221      0.3590      0.3645      0.4008      0.4313
145      0.9921      0.4457      0.4537      0.5315      0.5534      0.4090      0.4632      0.5890      0.5018
146      0.9091      0.3790      0.3808      0.3368      0.3440      0.5814      0.3827      0.2928      0.3027
147      0.3904      0.3162      0.3832      0.4492      0.3841      0.3888      0.4135      0.2845      0.2287
148      0.0000      0.2260      0.1956      0.2049      0.2666      0.2193      0.3044      0.2416      0.3308
149      0.0005      0.2940      0.2655      0.3101      0.2759      0.3647      0.2410      0.3626      0.2220
150      0.0000      0.2125      0.1771      0.3235      0.2258      0.0000      0.1842      0.2277      0.2638

# j      m_j: min, <> & last-chain-values for 1 ...  7 chains
  1  0.0000E+00  3.7426E-04  0.0000E+00  0.0000E+00  0.0000E+00  0.0000E+00  0.0000E+00  0.0000E+00  0.0000E+00
  2  3.8810E-02  1.7009E-02  1.9132E-02  1.9206E-02  1.9427E-02  2.2553E-02  1.9450E-02  1.9946E-02  2.1220E-02
  3  1.4579E-03  2.4453E-03  2.5548E-03  2.8693E-03  2.2742E-03  4.2099E-03  3.1405E-03  2.6791E-03  2.2132E-03
  4  0.0000E+00  1.3295E-04  3.0803E-04  0.0000E+00  1.4519E-03  2.0238E-04  0.0000E+00  0.0000E+00  0.0000E+00
  5  0.0000E+00  1.0175E-04  0.0000E+00  0.0000E+00  0.0000E+00  0.0000E+00  0.0000E+00  0.0000E+00  0.0000E+00
  6  0.0000E+00  2.0086E-04  6.8755E-04  0.0000E+00  0.0000E+00  0.0000E+00  0.0000E+00  0.0000E+00  0.0000E+00
  7  0.0000E+00  2.7088E-04  0.0000E+00  0.0000E+00  0.0000E+00  0.0000E+00  0.0000E+00  0.0000E+00  0.0000E+00
  8  0.0000E+00  4.1685E-04  0.0000E+00  0.0000E+00  0.0000E+00  0.0000E+00  0.0000E+00  0.0000E+00  0.0000E+00
  9  0.0000E+00  3.5798E-03  0.0000E+00  4.7943E-03  5.5383E-03  0.0000E+00  2.8088E-03  0.0000E+00  8.6939E-03
 10  0.0000E+00  1.8160E-03  0.0000E+00  0.0000E+00  4.9997E-05  5.7058E-03  0.0000E+00  0.0000E+00  2.8552E-03
 11  0.0000E+00  1.7888E-03  0.0000E+00  1.0074E-03  0.0000E+00  0.0000E+00  0.0000E+00  0.0000E+00  0.0000E+00
 12  0.0000E+00  2.3061E-03  3.9409E-03  1.6953E-02  1.0407E-04  0.0000E+00  1.2603E-03  1.0243E-02  3.1209E-04
 13  0.0000E+00  1.5975E-03  0.0000E+00  0.0000E+00  0.0000E+00  0.0000E+00  0.0000E+00  0.0000E+00  0.0000E+00
 14  0.0000E+00  1.4258E-03  1.5816E-03  0.0000E+00  1.4132E-02  1.1620E-02  0.0000E+00  0.0000E+00  0.0000E+00
 15  0.0000E+00  2.5417E-03  0.0000E+00  0.0000E+00  0.0000E+00  0.0000E+00  0.0000E+00  0.0000E+00  0.0000E+00
 16  0.0000E+00  6.0623E-03  0.0000E+00  7.5018E-05  0.0000E+00  0.0000E+00  0.0000E+00  0.0000E+00  0.0000E+00
 17  0.0000E+00  7.3349E-03  0.0000E+00  1.7103E-02  0.0000E+00  0.0000E+00  0.0000E+00  0.0000E+00  1.3902E-02
 18  0.0000E+00  1.3163E-02  1.1051E-03  0.0000E+00  0.0000E+00  0.0000E+00  0.0000E+00  4.3605E-03  0.0000E+00
 19  0.0000E+00  4.1164E-02  1.5880E-01  0.0000E+00  2.4216E-02  9.0189E-03  4.1138E-02  0.0000E+00  0.0000E+00
 20  0.0000E+00  1.8077E-01  1.4437E-03  4.0280E-01  6.3121E-02  9.8086E-02  4.8162E-01  0.0000E+00  0.0000E+00
 21  2.5394E-02  3.7794E-01  9.7274E-02  0.0000E+00  5.4235E-01  2.9344E-01  4.6376E-01  3.1338E-01  9.8370E-02
 22  0.0000E+00  6.0288E-01  0.0000E+00  7.6217E-01  2.6598E-02  1.3921E-01  3.7782E-01  9.1902E-01  9.1689E-01
 23  5.5955E+00  1.6439E+00  1.8729E+00  3.3714E+00  1.6057E+00  2.2093E+00  1.9901E+00  2.1351E+00  1.7014E+00
 24  4.4923E+00  2.5181E+00  3.2216E+00  9.1398E-01  2.9897E+00  4.5398E-01  2.8124E+00  1.9874E+00  3.5335E+00
 25  3.9455E+00  3.9881E+00  3.8784E+00  4.0170E+00  7.4460E+00  3.5343E+00  4.5295E+00  4.3602E+00  5.6136E+00
 26  0.0000E+00  2.5604E-04  0.0000E+00  0.0000E+00  0.0000E+00  0.0000E+00  0.0000E+00  8.7323E-04  0.0000E+00
 27  0.0000E+00  7.5288E-04  8.7757E-04  5.5494E-04  7.3859E-04  0.0000E+00  8.1860E-04  5.6133E-04  0.0000E+00
 28  0.0000E+00  1.9300E-04  1.0410E-03  0.0000E+00  0.0000E+00  0.0000E+00  0.0000E+00  0.0000E+00  0.0000E+00
 29  0.0000E+00  1.6269E-04  0.0000E+00  0.0000E+00  0.0000E+00  0.0000E+00  0.0000E+00  7.4463E-04  0.0000E+00
 30  0.0000E+00  1.2388E-04  0.0000E+00  0.0000E+00  0.0000E+00  0.0000E+00  0.0000E+00  0.0000E+00  0.0000E+00
 31  0.0000E+00  2.0127E-04  0.0000E+00  0.0000E+00  0.0000E+00  0.0000E+00  0.0000E+00  0.0000E+00  0.0000E+00
 32  0.0000E+00  3.4803E-04  0.0000E+00  0.0000E+00  0.0000E+00  0.0000E+00  2.6986E-03  0.0000E+00  0.0000E+00
 33  0.0000E+00  5.8686E-04  0.0000E+00  0.0000E+00  8.8218E-04  0.0000E+00  1.4494E-03  1.7406E-03  0.0000E+00
 34  0.0000E+00  9.9502E-04  0.0000E+00  0.0000E+00  3.8123E-03  6.4611E-04  0.0000E+00  0.0000E+00  0.0000E+00
 35  0.0000E+00  9.2530E-04  0.0000E+00  3.5255E-03  0.0000E+00  5.2473E-05  0.0000E+00  0.0000E+00  0.0000E+00
 36  0.0000E+00  1.1532E-03  2.1631E-03  4.2438E-04  0.0000E+00  0.0000E+00  0.0000E+00  0.0000E+00  0.0000E+00
 37  0.0000E+00  1.9823E-03  2.0843E-03  6.1081E-03  4.3998E-04  0.0000E+00  1.1866E-04  1.0073E-03  0.0000E+00
 38  0.0000E+00  1.3521E-03  0.0000E+00  0.0000E+00  0.0000E+00  0.0000E+00  0.0000E+00  0.0000E+00  0.0000E+00
 39  0.0000E+00  1.8087E-03  1.7258E-03  0.0000E+00  0.0000E+00  1.2613E-02  1.6104E-03  0.0000E+00  0.0000E+00
 40  0.0000E+00  3.2594E-03  0.0000E+00  8.1694E-03  0.0000E+00  0.0000E+00  0.0000E+00  0.0000E+00  0.0000E+00
 41  0.0000E+00  7.7246E-03  0.0000E+00  0.0000E+00  0.0000E+00  0.0000E+00  6.7681E-02  2.6028E-02  0.0000E+00
 42  0.0000E+00  1.4046E-02  0.0000E+00  5.1953E-04  0.0000E+00  0.0000E+00  0.0000E+00  0.0000E+00  0.0000E+00
 43  7.4330E-01  1.3938E-01  4.4195E-01  0.0000E+00  2.4114E-02  1.9810E-01  0.0000E+00  4.2470E-01  6.1606E-02
 44  4.0970E+00  3.9446E+00  4.1865E+00  3.9779E+00  4.1065E+00  4.9992E+00  4.0215E+00  4.1621E+00  3.7839E+00
 45  2.5662E+01  2.9778E+01  2.9477E+01  2.8720E+01  2.9217E+01  3.1819E+01  2.9881E+01  2.8857E+01  2.8789E+01
 46  3.7934E+01  3.7727E+01  3.8149E+01  3.7414E+01  3.6144E+01  3.9476E+01  3.7454E+01  3.7682E+01  3.7430E+01
 47  0.0000E+00  3.5435E-01  7.6383E-01  0.0000E+00  7.0005E-02  0.0000E+00  4.2733E-01  5.3069E-01  0.0000E+00
 48  0.0000E+00  4.3542E-01  5.4035E-01  5.7363E-01  0.0000E+00  2.7765E-01  3.7248E-02  2.0707E-01  9.5531E-02
 49  0.0000E+00  3.8141E-01  1.7308E-01  0.0000E+00  0.0000E+00  0.0000E+00  0.0000E+00  2.7925E-01  1.0749E+00
 50  0.0000E+00  3.8130E-01  0.0000E+00  8.4588E-01  0.0000E+00  0.0000E+00  4.1786E-01  0.0000E+00  0.0000E+00
 51  0.0000E+00  1.0106E-04  0.0000E+00  0.0000E+00  0.0000E+00  0.0000E+00  0.0000E+00  0.0000E+00  1.2466E-03
 52  3.1721E-08  5.5719E-04  2.1257E-03  5.6108E-04  5.2122E-04  7.6080E-04  4.8476E-04  1.5215E-03  0.0000E+00
 53  0.0000E+00  8.4211E-05  0.0000E+00  0.0000E+00  0.0000E+00  0.0000E+00  5.6494E-04  2.2310E-04  0.0000E+00
 54  1.2240E-07  1.6768E-03  6.7103E-04  2.6589E-03  1.7244E-03  1.9278E-03  1.4814E-03  1.4428E-03  1.4837E-03
 55  0.0000E+00  3.7719E-04  0.0000E+00  1.8947E-04  0.0000E+00  0.0000E+00  2.3410E-04  0.0000E+00  7.2734E-04
 56  0.0000E+00  2.0570E-04  0.0000E+00  0.0000E+00  0.0000E+00  0.0000E+00  3.4171E-04  0.0000E+00  9.4458E-04
 57  0.0000E+00  1.7384E-04  0.0000E+00  0.0000E+00  0.0000E+00  0.0000E+00  5.8079E-04  0.0000E+00  0.0000E+00
 58  0.0000E+00  2.8530E-04  0.0000E+00  0.0000E+00  0.0000E+00  0.0000E+00  0.0000E+00  0.0000E+00  0.0000E+00
 59  0.0000E+00  3.6071E-04  0.0000E+00  0.0000E+00  1.0367E-03  4.2866E-04  0.0000E+00  0.0000E+00  0.0000E+00
 60  0.0000E+00  4.1706E-04  0.0000E+00  0.0000E+00  0.0000E+00  0.0000E+00  0.0000E+00  0.0000E+00  0.0000E+00
 61  0.0000E+00  8.6712E-04  0.0000E+00  0.0000E+00  0.0000E+00  0.0000E+00  0.0000E+00  0.0000E+00  0.0000E+00
 62  0.0000E+00  1.5166E-03  6.3000E-04  1.0950E-03  0.0000E+00  0.0000E+00  3.6174E-03  0.0000E+00  0.0000E+00
 63  0.0000E+00  1.7990E-03  0.0000E+00  0.0000E+00  0.0000E+00  6.8622E-03  0.0000E+00  0.0000E+00  0.0000E+00
 64  0.0000E+00  3.1975E-03  3.7805E-02  0.0000E+00  0.0000E+00  0.0000E+00  0.0000E+00  6.3447E-03  0.0000E+00
 65  0.0000E+00  6.4294E-03  0.0000E+00  0.0000E+00  0.0000E+00  0.0000E+00  0.0000E+00  0.0000E+00  1.9021E-03
 66  0.0000E+00  4.7217E-03  0.0000E+00  0.0000E+00  0.0000E+00  0.0000E+00  0.0000E+00  0.0000E+00  0.0000E+00
 67  0.0000E+00  8.8051E-03  0.0000E+00  0.0000E+00  0.0000E+00  0.0000E+00  0.0000E+00  2.9880E-02  0.0000E+00
 68  0.0000E+00  1.5977E-02  0.0000E+00  0.0000E+00  0.0000E+00  0.0000E+00  0.0000E+00  0.0000E+00  2.1912E-02
 69  0.0000E+00  3.0391E-02  0.0000E+00  0.0000E+00  0.0000E+00  0.0000E+00  5.9186E-02  0.0000E+00  0.0000E+00
 70  0.0000E+00  4.5309E-02  0.0000E+00  2.0085E-02  0.0000E+00  0.0000E+00  0.0000E+00  0.0000E+00  5.0586E-02
 71  0.0000E+00  4.6942E-02  0.0000E+00  2.2121E-02  3.2895E-02  0.0000E+00  0.0000E+00  0.0000E+00  2.3676E-02
 72  0.0000E+00  9.7246E-02  3.1368E-02  0.0000E+00  0.0000E+00  0.0000E+00  0.0000E+00  3.9848E-01  2.3194E-01
 73  0.0000E+00  6.6910E-02  0.0000E+00  0.0000E+00  3.1837E-02  0.0000E+00  0.0000E+00  0.0000E+00  3.2058E-02
 74  0.0000E+00  6.6380E-02  4.2418E-01  0.0000E+00  0.0000E+00  0.0000E+00  0.0000E+00  0.0000E+00  0.0000E+00
 75  0.0000E+00  8.1020E-02  0.0000E+00  0.0000E+00  0.0000E+00  0.0000E+00  5.5140E-02  1.6198E-01  0.0000E+00
 76  0.0000E+00  8.1417E-05  0.0000E+00  0.0000E+00  0.0000E+00  0.0000E+00  0.0000E+00  0.0000E+00  0.0000E+00
 77  0.0000E+00  3.6912E-05  0.0000E+00  0.0000E+00  0.0000E+00  0.0000E+00  0.0000E+00  0.0000E+00  0.0000E+00
 78  0.0000E+00  5.2246E-05  0.0000E+00  8.4428E-05  0.0000E+00  0.0000E+00  0.0000E+00  0.0000E+00  0.0000E+00
 79  0.0000E+00  7.6004E-05  0.0000E+00  0.0000E+00  0.0000E+00  0.0000E+00  0.0000E+00  0.0000E+00  0.0000E+00
 80  0.0000E+00  1.0398E-04  1.3645E-03  0.0000E+00  0.0000E+00  0.0000E+00  0.0000E+00  0.0000E+00  3.1408E-04
 81  0.0000E+00  7.8147E-05  0.0000E+00  0.0000E+00  0.0000E+00  0.0000E+00  0.0000E+00  3.5549E-05  0.0000E+00
 82  0.0000E+00  1.7983E-04  1.4424E-03  0.0000E+00  0.0000E+00  0.0000E+00  0.0000E+00  0.0000E+00  0.0000E+00
 83  0.0000E+00  9.1712E-04  0.0000E+00  1.8059E-03  5.0314E-04  0.0000E+00  0.0000E+00  1.8348E-04  6.5131E-04
 84  0.0000E+00  9.9273E-04  0.0000E+00  0.0000E+00  4.4059E-04  5.5941E-04  0.0000E+00  2.4336E-03  3.3233E-04
 85  0.0000E+00  8.1086E-04  0.0000E+00  4.4600E-04  1.4155E-03  0.0000E+00  0.0000E+00  0.0000E+00  0.0000E+00
 86  0.0000E+00  8.1445E-04  0.0000E+00  0.0000E+00  0.0000E+00  4.6529E-03  0.0000E+00  0.0000E+00  0.0000E+00
 87  0.0000E+00  1.2013E-03  0.0000E+00  0.0000E+00  0.0000E+00  0.0000E+00  0.0000E+00  0.0000E+00  0.0000E+00
 88  0.0000E+00  9.7545E-04  5.9765E-04  0.0000E+00  0.0000E+00  0.0000E+00  0.0000E+00  0.0000E+00  0.0000E+00
 89  0.0000E+00  8.5655E-04  0.0000E+00  3.7501E-03  0.0000E+00  0.0000E+00  0.0000E+00  1.9686E-03  0.0000E+00
 90  0.0000E+00  1.7568E-03  0.0000E+00  0.0000E+00  0.0000E+00  0.0000E+00  0.0000E+00  0.0000E+00  5.2870E-03
 91  0.0000E+00  1.9710E-03  0.0000E+00  0.0000E+00  0.0000E+00  0.0000E+00  0.0000E+00  0.0000E+00  0.0000E+00
 92  0.0000E+00  2.2946E-03  0.0000E+00  0.0000E+00  0.0000E+00  0.0000E+00  0.0000E+00  0.0000E+00  0.0000E+00
 93  0.0000E+00  9.1792E-03  0.0000E+00  0.0000E+00  0.0000E+00  0.0000E+00  5.2020E-03  1.6878E-02  0.0000E+00
 94  0.0000E+00  1.9986E-02  0.0000E+00  0.0000E+00  0.0000E+00  0.0000E+00  0.0000E+00  0.0000E+00  0.0000E+00
 95  0.0000E+00  2.4451E-02  0.0000E+00  0.0000E+00  0.0000E+00  0.0000E+00  0.0000E+00  0.0000E+00  0.0000E+00
 96  0.0000E+00  3.1805E-02  0.0000E+00  2.3104E-02  0.0000E+00  0.0000E+00  0.0000E+00  0.0000E+00  0.0000E+00
 97  0.0000E+00  3.2562E-02  0.0000E+00  0.0000E+00  0.0000E+00  0.0000E+00  0.0000E+00  0.0000E+00  0.0000E+00
 98  0.0000E+00  3.1948E-02  0.0000E+00  0.0000E+00  0.0000E+00  0.0000E+00  0.0000E+00  0.0000E+00  0.0000E+00
 99  0.0000E+00  3.4235E-02  0.0000E+00  0.0000E+00  0.0000E+00  0.0000E+00  0.0000E+00  0.0000E+00  0.0000E+00
100  0.0000E+00  3.9013E-02  3.7554E-02  0.0000E+00  0.0000E+00  0.0000E+00  1.3895E-02  0.0000E+00  4.1461E-02
101  0.0000E+00  3.0161E-05  0.0000E+00  0.0000E+00  0.0000E+00  0.0000E+00  0.0000E+00  1.7123E-05  0.0000E+00
102  0.0000E+00  2.1050E-05  0.0000E+00  0.0000E+00  0.0000E+00  0.0000E+00  0.0000E+00  0.0000E+00  0.0000E+00
103  0.0000E+00  9.5231E-05  0.0000E+00  0.0000E+00  0.0000E+00  0.0000E+00  0.0000E+00  0.0000E+00  0.0000E+00
104  0.0000E+00  6.2361E-05  1.3489E-04  0.0000E+00  6.3145E-05  0.0000E+00  0.0000E+00  0.0000E+00  0.0000E+00
105  0.0000E+00  5.9101E-05  0.0000E+00  0.0000E+00  0.0000E+00  0.0000E+00  0.0000E+00  0.0000E+00  0.0000E+00
106  0.0000E+00  1.0916E-04  0.0000E+00  0.0000E+00  0.0000E+00  0.0000E+00  0.0000E+00  0.0000E+00  0.0000E+00
107  0.0000E+00  1.2579E-04  0.0000E+00  0.0000E+00  0.0000E+00  0.0000E+00  0.0000E+00  0.0000E+00  0.0000E+00
108  0.0000E+00  1.4691E-04  0.0000E+00  0.0000E+00  0.0000E+00  0.0000E+00  1.4762E-05  0.0000E+00  0.0000E+00
109  0.0000E+00  2.9962E-04  0.0000E+00  0.0000E+00  0.0000E+00  0.0000E+00  0.0000E+00  0.0000E+00  0.0000E+00
110  0.0000E+00  3.3880E-04  0.0000E+00  0.0000E+00  0.0000E+00  0.0000E+00  4.0348E-05  0.0000E+00  0.0000E+00
111  0.0000E+00  5.6481E-04  7.8275E-04  0.0000E+00  1.6871E-03  0.0000E+00  0.0000E+00  0.0000E+00  0.0000E+00
112  0.0000E+00  5.9516E-04  0.0000E+00  0.0000E+00  0.0000E+00  0.0000E+00  0.0000E+00  0.0000E+00  0.0000E+00
113  0.0000E+00  5.1396E-04  0.0000E+00  0.0000E+00  0.0000E+00  0.0000E+00  0.0000E+00  0.0000E+00  0.0000E+00
114  0.0000E+00  7.2164E-04  0.0000E+00  0.0000E+00  0.0000E+00  0.0000E+00  0.0000E+00  0.0000E+00  0.0000E+00
115  0.0000E+00  1.9279E-03  0.0000E+00  0.0000E+00  0.0000E+00  0.0000E+00  0.0000E+00  0.0000E+00  0.0000E+00
116  0.0000E+00  3.8273E-03  0.0000E+00  0.0000E+00  0.0000E+00  0.0000E+00  0.0000E+00  0.0000E+00  5.5558E-03
117  0.0000E+00  4.4178E-03  0.0000E+00  0.0000E+00  0.0000E+00  7.4606E-03  5.4812E-03  0.0000E+00  0.0000E+00
118  0.0000E+00  7.8750E-03  1.0588E-02  3.0736E-03  0.0000E+00  1.1448E-01  0.0000E+00  0.0000E+00  0.0000E+00
119  0.0000E+00  1.2201E-02  0.0000E+00  0.0000E+00  0.0000E+00  0.0000E+00  0.0000E+00  0.0000E+00  0.0000E+00
120  0.0000E+00  1.5278E-02  0.0000E+00  0.0000E+00  0.0000E+00  0.0000E+00  0.0000E+00  0.0000E+00  0.0000E+00
121  0.0000E+00  1.3564E-02  0.0000E+00  0.0000E+00  0.0000E+00  0.0000E+00  0.0000E+00  0.0000E+00  0.0000E+00
122  0.0000E+00  1.8421E-02  0.0000E+00  0.0000E+00  0.0000E+00  0.0000E+00  0.0000E+00  0.0000E+00  8.6585E-02
123  0.0000E+00  3.6687E-02  0.0000E+00  0.0000E+00  0.0000E+00  0.0000E+00  0.0000E+00  0.0000E+00  0.0000E+00
124  0.0000E+00  4.5272E-02  0.0000E+00  0.0000E+00  0.0000E+00  0.0000E+00  0.0000E+00  0.0000E+00  0.0000E+00
125  0.0000E+00  4.2288E-02  0.0000E+00  0.0000E+00  0.0000E+00  0.0000E+00  0.0000E+00  0.0000E+00  0.0000E+00
126  0.0000E+00  2.0780E-05  0.0000E+00  0.0000E+00  0.0000E+00  0.0000E+00  0.0000E+00  4.4784E-06  0.0000E+00
127  0.0000E+00  1.9864E-05  0.0000E+00  0.0000E+00  1.5316E-07  0.0000E+00  0.0000E+00  0.0000E+00  0.0000E+00
128  0.0000E+00  3.6375E-05  0.0000E+00  0.0000E+00  0.0000E+00  0.0000E+00  0.0000E+00  0.0000E+00  1.3361E-05
129  0.0000E+00  1.8597E-04  0.0000E+00  0.0000E+00  7.8364E-05  6.5833E-04  8.4005E-05  0.0000E+00  4.6015E-05
130  0.0000E+00  6.0169E-05  2.8655E-04  0.0000E+00  0.0000E+00  0.0000E+00  0.0000E+00  0.0000E+00  0.0000E+00
131  0.0000E+00  6.1883E-05  0.0000E+00  0.0000E+00  0.0000E+00  0.0000E+00  0.0000E+00  0.0000E+00  0.0000E+00
132  0.0000E+00  1.0063E-04  0.0000E+00  0.0000E+00  0.0000E+00  0.0000E+00  0.0000E+00  6.1180E-04  0.0000E+00
133  0.0000E+00  1.4036E-04  0.0000E+00  0.0000E+00  0.0000E+00  0.0000E+00  0.0000E+00  0.0000E+00  0.0000E+00
134  0.0000E+00  3.3527E-04  0.0000E+00  0.0000E+00  0.0000E+00  0.0000E+00  0.0000E+00  0.0000E+00  0.0000E+00
135  0.0000E+00  3.7448E-04  1.0471E-04  0.0000E+00  0.0000E+00  0.0000E+00  0.0000E+00  0.0000E+00  0.0000E+00
136  0.0000E+00  7.4793E-04  0.0000E+00  0.0000E+00  0.0000E+00  0.0000E+00  0.0000E+00  0.0000E+00  0.0000E+00
137  0.0000E+00  6.0233E-04  0.0000E+00  0.0000E+00  0.0000E+00  0.0000E+00  0.0000E+00  0.0000E+00  0.0000E+00
138  0.0000E+00  9.0897E-04  0.0000E+00  0.0000E+00  0.0000E+00  0.0000E+00  0.0000E+00  0.0000E+00  0.0000E+00
139  0.0000E+00  1.0414E-03  0.0000E+00  0.0000E+00  0.0000E+00  1.0590E-02  0.0000E+00  0.0000E+00  6.2641E-04
140  0.0000E+00  3.2125E-03  0.0000E+00  0.0000E+00  0.0000E+00  0.0000E+00  0.0000E+00  0.0000E+00  0.0000E+00
141  0.0000E+00  4.3482E-03  0.0000E+00  0.0000E+00  0.0000E+00  0.0000E+00  0.0000E+00  0.0000E+00  0.0000E+00
142  0.0000E+00  8.3208E-03  0.0000E+00  0.0000E+00  8.3102E-02  2.4026E-02  0.0000E+00  0.0000E+00  0.0000E+00
143  0.0000E+00  1.9020E-02  7.7426E-02  0.0000E+00  0.0000E+00  5.2358E-02  1.2397E-02  0.0000E+00  0.0000E+00
144  4.2941E+00  1.3769E+00  1.6782E+00  1.4136E+00  1.5779E+00  1.1589E+00  1.1236E+00  1.2356E+00  1.3140E+00
145  4.8291E+00  2.0413E+00  2.1087E+00  2.3934E+00  2.4895E+00  1.9651E+00  2.1256E+00  2.7027E+00  2.2758E+00
146  5.2850E+00  2.0730E+00  2.1136E+00  1.8111E+00  1.8480E+00  3.3363E+00  2.0973E+00  1.6046E+00  1.6393E+00
147  3.0495E+00  2.3237E+00  2.8579E+00  3.2455E+00  2.7726E+00  2.9982E+00  3.0451E+00  2.0948E+00  1.6644E+00
148  0.0000E+00  2.2500E+00  1.9761E+00  2.0054E+00  2.6072E+00  2.2905E+00  3.0357E+00  2.4100E+00  3.2607E+00
149  6.6191E-03  3.4277E+00  3.1418E+00  3.5546E+00  3.1601E+00  4.4616E+00  2.8152E+00  4.2362E+00  2.5629E+00
150  0.0000E+00  2.9514E+00  2.4966E+00  4.4175E+00  3.0802E+00  0.0000E+00  2.5625E+00  3.1684E+00  3.6272E+00

# AV, chi2 & Mass for <> & i_chain = 1 ...  7 solutions
AV       0.7723      0.7337      0.7419      0.7328      0.7337      0.7448      0.7390      0.7383      0.7386
chi2 2.1495E+00  2.2785E+00  2.2523E+00  2.2499E+00  2.2476E+00  2.2346E+00  2.2512E+00  2.2451E+00  2.2405E+00
Mass 6.2741E-10  6.3317E-10  6.3075E-10  6.4315E-10  6.4458E-10  6.1253E-10  6.3636E-10  6.3579E-10  6.4367E-10
 -14.69                                  [v0_min (km/s) before EX0s...]
  75.44                                  [vd_min (km/s) before EX0s...]


## Synthetic spectrum (Best Model) ##l_obs f_obs f_syn wei
 3070    [Nl_obs]
 3359.00    0.20281   0.45043   -1.000
 3360.00    0.29608   0.43859   -1.000
 3361.00    0.30884   0.44820   -1.000
 3362.00    0.31424   0.47237   -1.000
 3363.00    0.32432   0.49866   -1.000
 3364.00    0.35033   0.51405   -1.000
 3365.00    0.35286   0.51504   -1.000
 3366.00    0.35910   0.50948   -1.000
 3367.00    0.35516   0.50282   -1.000
 3368.00    0.35244   0.49410   -1.000
 3369.00    0.34943   0.48016   -1.000
 3370.00    0.34417   0.46216   -1.000
 3371.00    0.34713   0.45068   -1.000
 3372.00    0.36210   0.45464   -1.000
 3373.00    0.37043   0.47277   -1.000
 3374.00    0.36656   0.49693   -1.000
 3375.00    0.38146   0.51705   -1.000
 3376.00    0.40349   0.52511   -1.000
 3377.00    0.42317   0.52059   -1.000
 3378.00    0.41875   0.51080   37.879
 3379.00    0.40930   0.50544   -1.000
 3380.00    0.40572   0.50809   -1.000
 3381.00    0.40393   0.51453   -1.000
 3382.00    0.41311   0.52014   -1.000
 3383.00    0.42709   0.52437   36.065
 3384.00    0.43587   0.52845   34.579
 3385.00    0.43337   0.52964   34.189
 3386.00    0.44057   0.52306   34.451
 3387.00    0.44606   0.51192   34.005
 3388.00    0.44509   0.50691   33.371
 3389.00    0.44573   0.51354   32.685
 3390.00    0.45425   0.52564   32.748
 3391.00    0.46266   0.53234   33.096
 3392.00    0.46191   0.52955   33.311
 3393.00    0.46081   0.52527   32.611
 3394.00    0.46312   0.52814   31.285
 3395.00    0.46796   0.53818   29.632
 3396.00    0.47700   0.55079   28.541
 3397.00    0.48787   0.56195   27.676
 3398.00    0.50954   0.56968   26.687
 3399.00    0.51484   0.57199   26.148
 3400.00    0.50249   0.56720   26.220
 3401.00    0.50736   0.55497   27.109
 3402.00    0.51050   0.53944   27.660
 3403.00    0.49785   0.52817   28.083
 3404.00    0.48660   0.52485   28.592
 3405.00    0.48857   0.52740   29.074
 3406.00    0.49327   0.52869   29.304
 3407.00    0.49027   0.52485   29.677
 3408.00    0.48165   0.52050   29.931
 3409.00    0.47897   0.52207   29.841
 3410.00    0.48044   0.52678   29.132
 3411.00    0.48795   0.52631   28.715
 3412.00    0.49084   0.51968   29.540
 3413.00    0.49370   0.51351   30.305
 3414.00    0.49170   0.51619   30.408
 3415.00    0.48642   0.52867   29.838
 3416.00    0.49031   0.54335   28.697
 3417.00    0.50937   0.55423   27.369
 3418.00    0.52136   0.56120   26.008
 3419.00    0.51951   0.56603   25.560
 3420.00    0.52127   0.56788   25.410
 3421.00    0.52265   0.56234   25.472
 3422.00    0.52000   0.54830   26.054
 3423.00    0.52489   0.53411   26.698
 3424.00    0.52115   0.52909   26.309
 3425.00    0.52527   0.53373   25.591
 3426.00    0.52025   0.54395   25.303
 3427.00    0.53250   0.55809   68.840
 3428.00    0.54992   0.57427   -1.000
 3429.00    0.55357   0.58642   -1.000
 3430.00    0.55631   0.58632   -1.000
 3431.00    0.55177   0.57291  217.803
 3432.00    0.54627   0.55755   34.463
 3433.00    0.53866   0.55354   25.246
 3434.00    0.54239   0.56319   68.884
 3435.00    0.53946   0.57515   -1.000
 3436.00    0.53760   0.57666   34.169
 3437.00    0.54062   0.56643   26.022
 3438.00    0.53658   0.55096   27.493
 3439.00    0.52519   0.53481   29.529
 3440.00    0.51296   0.51905   31.062
 3441.00    0.50573   0.50571   31.450
 3442.00    0.49523   0.49888   31.364
 3443.00    0.49875   0.50051   30.422
 3444.00    0.50836   0.50933   28.875
 3445.00    0.51461   0.52426   27.279
 3446.00    0.52391   0.54458   26.176
 3447.00    0.54717   0.56608   70.840
 3448.00    0.55713   0.58172   -1.000
 3449.00    0.56369   0.58468   -1.000
 3450.00    0.57640   0.57310  217.803
 3451.00    0.57076   0.55492   -1.000
 3452.00    0.55162   0.54200   -1.000
 3453.00    0.54819   0.54015   -1.000
 3454.00    0.56245   0.54673   -1.000
 3455.00    0.56865   0.55456   -1.000
 3456.00    0.57860   0.55769   -1.000
 3457.00    0.58210   0.55494   -1.000
 3458.00    0.57140   0.54794   34.069
 3459.00    0.56183   0.53845   25.509
 3460.00    0.56302   0.53001   25.483
 3461.00    0.56281   0.52869   -1.000
 3462.00    0.56549   0.53567   -1.000
 3463.00    0.57664   0.54390   -1.000
 3464.00    0.58508   0.54682   -1.000
 3465.00    0.58642   0.54646   -1.000
 3466.00    0.58814   0.55066   -1.000
 3467.00    0.58147   0.56237   -1.000
 3468.00    0.58511   0.57697  216.319
 3469.00    0.59431   0.58768  213.927
 3470.00    0.59828   0.58995  214.974
 3471.00    0.60099   0.58339   -1.000
 3472.00    0.59105   0.56934   -1.000
 3473.00    0.58260   0.55054   -1.000
 3474.00    0.57292   0.53405   34.199
 3475.00    0.55620   0.52699   26.159
 3476.00    0.54873   0.53214   26.011
 3477.00    0.55518   0.54623   71.421
 3478.00    0.57283   0.56172  217.803
 3479.00    0.59704   0.57419   -1.000
 3480.00    0.60150   0.58227   -1.000
 3481.00    0.59632   0.58416  215.731
 3482.00    0.60860   0.58078   -1.000
 3483.00    0.60477   0.57679   -1.000
 3484.00    0.60087   0.57722   -1.000
 3485.00    0.61009   0.58293   -1.000
 3486.00    0.61844   0.58845   -1.000
 3487.00    0.62091   0.58741   -1.000
 3488.00    0.61456   0.57833   -1.000
 3489.00    0.60155   0.56544   -1.000
 3490.00    0.58608   0.55731   -1.000
 3491.00    0.58148   0.55933   -1.000
 3492.00    0.58848   0.56638   -1.000
 3493.00    0.60182   0.56937   -1.000
 3494.00    0.59929   0.56525   -1.000
 3495.00    0.58774   0.55735   -1.000
 3496.00    0.58161   0.55202   -1.000
 3497.00    0.58106   0.55244   -1.000
 3498.00    0.59131   0.55633   -1.000
 3499.00    0.59756   0.56012   -1.000
 3500.00    0.60718   0.56205   -1.000
 3501.00    0.61756   0.56447   -1.000
 3502.00    0.61494   0.56933   -1.000
 3503.00    0.61795   0.57323   -1.000
 3504.00    0.61787   0.57191   -1.000
 3505.00    0.61678   0.56544   -1.000
 3506.00    0.61934   0.55794   -1.000
 3507.00    0.60843   0.55316   -1.000
 3508.00    0.60334   0.55235   -1.000
 3509.00    0.61447   0.55416   -1.000
 3510.00    0.61501   0.55513   -1.000
 3511.00    0.60269   0.55264   -1.000
 3512.00    0.59199   0.54712   -1.000
 3513.00    0.58373   0.54307   -1.000
 3514.00    0.58581   0.54637   -1.000
 3515.00    0.58890   0.55980   -1.000
 3516.00    0.60368   0.57898   -1.000
 3517.00    0.62579   0.59302   -1.000
 3518.00    0.62478   0.59297   -1.000
 3519.00    0.60932   0.58057   -1.000
 3520.00    0.60167   0.56546   -1.000
 3521.00    0.58938   0.55431   -1.000
 3522.00    0.58260   0.54639   -1.000
 3523.00    0.57490   0.53802   33.513
 3524.00    0.55859   0.52897   25.912
 3525.00    0.54868   0.52521   26.037
 3526.00    0.54909   0.53148   73.852
 3527.00    0.56646   0.54574   -1.000
 3528.00    0.58111   0.56275   -1.000
 3529.00    0.59067   0.57779   -1.000
 3530.00    0.59730   0.58783  213.004
 3531.00    0.60694   0.59001   -1.000
 3532.00    0.60720   0.58125   -1.000
 3533.00    0.60446   0.56560   -1.000
 3534.00    0.60784   0.55467   -1.000
 3535.00    0.60980   0.55804   -1.000
 3536.00    0.61909   0.57505   -1.000
 3537.00    0.61960   0.59521   -1.000
 3538.00    0.61524   0.60876  199.013
 3539.00    0.62130   0.61358  199.617
 3540.00    0.61870   0.61247  202.902
 3541.00    0.61101   0.61031  205.215
 3542.00    0.61031   0.61169  204.691
 3543.00    0.61588   0.61649  202.031
 3544.00    0.62081   0.61975  200.773
 3545.00    0.61727   0.61820  203.379
 3546.00    0.61873   0.61345  207.847
 3547.00    0.61643   0.60903  209.700
 3548.00    0.60997   0.60795  209.565
 3549.00    0.61343   0.61135  208.336
 3550.00    0.62050   0.61705  210.072
 3551.00    0.61284   0.61944  215.699
 3552.00    0.60679   0.61394  217.803
 3553.00    0.59456   0.60334  217.803
 3554.00    0.59534   0.59602  217.803
 3555.00    0.59868   0.59706  217.803
 3556.00    0.59460   0.60515  217.803
 3557.00    0.59768   0.61526   -1.000
 3558.00    0.60394   0.62216   -1.000
 3559.00    0.59456   0.62431   -1.000
 3560.00    0.59602   0.62391   -1.000
 3561.00    0.59892   0.62179   -1.000
 3562.00    0.59989   0.61538   -1.000
 3563.00    0.60335   0.60255  217.803
 3564.00    0.59283   0.58533   33.460
 3565.00    0.56448   0.56963   26.273
 3566.00    0.55510   0.56077   26.325
 3567.00    0.55832   0.55848   26.134
 3568.00    0.56251   0.55758   26.756
 3569.00    0.55080   0.55300   27.363
 3570.00    0.54241   0.54493   26.844
 3571.00    0.54309   0.53856   25.726
 3572.00    0.55572   0.53772   74.451
 3573.00    0.55825   0.54185   -1.000
 3574.00    0.55893   0.54923  217.803
 3575.00    0.56588   0.55809  217.803
 3576.00    0.57674   0.56619  217.803
 3577.00    0.57885   0.57174  217.803
 3578.00    0.58272   0.57234   34.499
 3579.00    0.57125   0.56601   27.893
 3580.00    0.55316   0.55477   29.612
 3581.00    0.54592   0.54380   30.168
 3582.00    0.54261   0.53727   30.306
 3583.00    0.54975   0.53386   30.908
 3584.00    0.54198   0.52750   31.871
 3585.00    0.51753   0.51544   32.476
 3586.00    0.50822   0.50363   31.342
 3587.00    0.51184   0.50159   29.684
 3588.00    0.52225   0.51388   28.213
 3589.00    0.53544   0.53581   25.959
 3590.00    0.55585   0.55707   74.278
 3591.00    0.57743   0.56983  217.803
 3592.00    0.58331   0.57435  217.803
 3593.00    0.58919   0.57702  217.803
 3594.00    0.59684   0.58356   -1.000
 3595.00    0.59918   0.59387  206.225
 3596.00    0.60284   0.60365  199.204
 3597.00    0.61025   0.60972  193.845
 3598.00    0.61162   0.61204  190.199
 3599.00    0.62234   0.61096  191.143
 3600.00    0.61930   0.60478  198.624
 3601.00    0.60997   0.59398   -1.000
 3602.00    0.60526   0.58381   -1.000
 3603.00    0.59359   0.57998   -1.000
 3604.00    0.57909   0.58229  217.803
 3605.00    0.57745   0.58475  217.803
 3606.00    0.58296   0.58244  217.803
 3607.00    0.58421   0.57622  217.803
 3608.00    0.57174   0.57020  217.803
 3609.00    0.56541   0.56724  217.803
 3610.00    0.57079   0.56800  217.803
 3611.00    0.57442   0.57236  217.803
 3612.00    0.58076   0.57964  217.803
 3613.00    0.59027   0.58923  214.572
 3614.00    0.58983   0.60102   -1.000
 3615.00    0.60074   0.61045   -1.000
 3616.00    0.60366   0.61033  217.803
 3617.00    0.59160   0.59956  217.803
 3618.00    0.57113   0.58528   32.604
 3619.00    0.56224   0.57792   75.088
 3620.00    0.57898   0.58242  217.803
 3621.00    0.59693   0.59424  205.880
 3622.00    0.60926   0.60632  199.339
 3623.00    0.60883   0.61661  196.347
 3624.00    0.60842   0.62815   -1.000
 3625.00    0.61876   0.64391   -1.000
 3626.00    0.63065   0.66112   -1.000
 3627.00    0.63239   0.66971   -1.000
 3628.00    0.63677   0.66063   -1.000
 3629.00    0.62054   0.63490   -1.000
 3630.00    0.59245   0.60558  217.803
 3631.00    0.57173   0.58854   -1.000
 3632.00    0.56730   0.58984   -1.000
 3633.00    0.58218   0.60139   -1.000
 3634.00    0.59513   0.61089   -1.000
 3635.00    0.60450   0.61474  209.538
 3636.00    0.60465   0.61917   -1.000
 3637.00    0.61505   0.62871   -1.000
 3638.00    0.62471   0.63987   -1.000
 3639.00    0.62452   0.64699   -1.000
 3640.00    0.63085   0.64733   -1.000
 3641.00    0.62612   0.64091   -1.000
 3642.00    0.61262   0.63020   -1.000
 3643.00    0.60505   0.61906   -1.000
 3644.00    0.59825   0.61033   -1.000
 3645.00    0.59432   0.60455  215.940
 3646.00    0.59114   0.60105  217.803
 3647.00    0.58863   0.59923  217.803
 3648.00    0.58634   0.59876   -1.000
 3649.00    0.58896   0.59990  208.121
 3650.00    0.60068   0.60381  198.383
 3651.00    0.60979   0.61209  189.743
 3652.00    0.61304   0.62428  184.320
 3653.00    0.62639   0.63815  181.312
 3654.00    0.63717   0.65184   -1.000
 3655.00    0.64637   0.66394   -1.000
 3656.00    0.64495   0.67238   -1.000
 3657.00    0.64534   0.67584   -1.000
 3658.00    0.66095   0.67528   -1.000
 3659.00    0.65567   0.67240   -1.000
 3660.00    0.64606   0.66734   -1.000
 3661.00    0.65114   0.65999  176.737
 3662.00    0.64842   0.65260  179.513
 3663.00    0.64003   0.64905  181.290
 3664.00    0.64923   0.65078  179.889
 3665.00    0.65120   0.65487  179.456
 3666.00    0.65017   0.65707  182.416
 3667.00    0.65158   0.65486  184.870
 3668.00    0.63829   0.64890   -1.000
 3669.00    0.62356   0.64312   -1.000
 3670.00    0.62309   0.64210   -1.000
 3671.00    0.63234   0.64700   -1.000
 3672.00    0.63884   0.65443   -1.000
 3673.00    0.64774   0.65910   -1.000
 3674.00    0.65163   0.65791  177.587
 3675.00    0.63909   0.65044   -1.000
 3676.00    0.63690   0.63802  187.628
 3677.00    0.63199   0.62446  193.358
 3678.00    0.62524   0.61573  198.503
 3679.00    0.61530   0.61499  199.224
 3680.00    0.61809   0.61974  195.006
 3681.00    0.61880   0.62529  189.453
 3682.00    0.61866   0.62859  186.852
 3683.00    0.62392   0.62892  189.988
 3684.00    0.62414   0.62614  197.118
 3685.00    0.61179   0.62156  205.260
 3686.00    0.59917   0.61957   -1.000
 3687.00    0.60030   0.62540   -1.000
 3688.00    0.61155   0.63939   -1.000
 3689.00    0.62188   0.65494   -1.000
 3690.00    0.63265   0.66475   -1.000
 3691.00    0.64838   0.66757   -1.000
 3692.00    0.65288   0.66701   -1.000
 3693.00    0.64943   0.66642   -1.000
 3694.00    0.65060   0.66681   -1.000
 3695.00    0.64438   0.66630   -1.000
 3696.00    0.63804   0.66413   -1.000
 3697.00    0.63916   0.66522   -1.000
 3698.00    0.65215   0.67494   -1.000
 3699.00    0.68262   0.69073  165.291
 3700.00    0.69461   0.70030  167.263
 3701.00    0.67920   0.69141  173.982
 3702.00    0.66045   0.66307  188.588
 3703.00    0.62961   0.62769  206.736
 3704.00    0.59807   0.60104  217.803
 3705.00    0.59055   0.59175  217.803
 3706.00    0.59778   0.59780  215.680
 3707.00    0.61179   0.61088  212.663
 3708.00    0.61696   0.62086  206.797
 3709.00    0.61637   0.62105  198.025
 3710.00    0.61672   0.61372  189.012
 3711.00    0.61247   0.60927  178.697
 3712.00    0.63201   0.61810  169.775
 3713.00    0.65571   0.64177  164.738
 3714.00    0.68851   0.67203  163.459
 3715.00    0.70706   0.69725  166.735
 3716.00    0.71326   0.70932  173.600
 3717.00    0.70156   0.70314  188.189
 3718.00    0.67249   0.67570  213.767
 3719.00    0.61975   0.62936  217.803
 3720.00    0.58057   0.57969   32.458
 3721.00    0.55447   0.54975   81.001
 3722.00    0.56060   0.55376  217.372
 3723.00    0.59652   0.58806  194.539
 3724.00    0.64165   0.63459  183.917
 3725.00    0.67632   0.67221  183.383
 3726.00    0.69778   0.69202  188.449
 3727.00    0.69198   0.69998  191.061
 3728.00    0.68404   0.70445  188.878
 3729.00    0.68811   0.70522  189.704
 3730.00    0.68020   0.69349  196.933
 3731.00    0.65618   0.65933  215.546
 3732.00    0.61410   0.60592   31.678
 3733.00    0.56332   0.55084   27.455
 3734.00    0.52728   0.51507   29.020
 3735.00    0.52249   0.51130   28.108
 3736.00    0.54332   0.53989   25.709
 3737.00    0.57613   0.58868   79.072
 3738.00    0.62213   0.64278   -1.000
 3739.00    0.67006   0.68885  190.896
 3740.00    0.70253   0.71662  187.681
 3741.00    0.71504   0.72171  193.257
 3742.00    0.70997   0.70969  204.571
 3743.00    0.69258   0.68991  217.007
 3744.00    0.66871   0.66822  217.803
 3745.00    0.64945   0.64523  217.803
 3746.00    0.62184   0.61817   32.108
 3747.00    0.58592   0.58575   26.791
 3748.00    0.54582   0.55232   27.406
 3749.00    0.52280   0.52992   87.498
 3750.00    0.53031   0.53277  217.803
 3751.00    0.57991   0.56567   -1.000
 3752.00    0.63739   0.61800   -1.000
 3753.00    0.67999   0.67178  172.792
 3754.00    0.71458   0.71226  168.217
 3755.00    0.73766   0.73180  174.958
 3756.00    0.74443   0.72905   -1.000
 3757.00    0.72453   0.71093   -1.000
 3758.00    0.69467   0.69110  217.803
 3759.00    0.68802   0.68109  211.262
 3760.00    0.71018   0.68420   -1.000
 3761.00    0.72228   0.69564   -1.000
 3762.00    0.72485   0.70704   -1.000
 3763.00    0.73146   0.71196   -1.000
 3764.00    0.73274   0.70874   -1.000
 3765.00    0.72642   0.69782   -1.000
 3766.00    0.70323   0.67877   -1.000
 3767.00    0.67633   0.65035   -1.000
 3768.00    0.64974   0.61506   -1.000
 3769.00    0.61792   0.58281   -1.000
 3770.00    0.59873   0.56877   -1.000
 3771.00    0.60411   0.58222   -1.000
 3772.00    0.63749   0.61851   -1.000
 3773.00    0.68218   0.66107   -1.000
 3774.00    0.70727   0.69451  174.363
 3775.00    0.72149   0.71532  173.975
 3776.00    0.74305   0.73090  173.499
 3777.00    0.76488   0.74951   -1.000
 3778.00    0.78392   0.77240  166.342
 3779.00    0.80061   0.79503  162.098
 3780.00    0.81495   0.81144  160.466
 3781.00    0.82784   0.81830  159.481
 3782.00    0.83083   0.81639   -1.000
 3783.00    0.83297   0.80942   -1.000
 3784.00    0.83072   0.79937   -1.000
 3785.00    0.81168   0.78612   -1.000
 3786.00    0.78249   0.77019   -1.000
 3787.00    0.76660   0.75511   -1.000
 3788.00    0.75853   0.74559   -1.000
 3789.00    0.76184   0.74307   -1.000
 3790.00    0.75512   0.74361   -1.000
 3791.00    0.74681   0.74079  194.355
 3792.00    0.73767   0.72845   -1.000
 3793.00    0.71127   0.70345  207.941
 3794.00    0.67917   0.66671   -1.000
 3795.00    0.64755   0.62296   -1.000
 3796.00    0.61275   0.57954   -1.000
 3797.00    0.57061   0.54820   -1.000
 3798.00    0.55364   0.54317   -1.000
 3799.00    0.58215   0.57326  211.029
 3800.00    0.63305   0.62910  193.703
 3801.00    0.68281   0.68942  183.847
 3802.00    0.73259   0.73595  179.022
 3803.00    0.76240   0.76322  177.435
 3804.00    0.77579   0.77468  179.437
 3805.00    0.78440   0.77747  185.498
 3806.00    0.78450   0.77942  189.849
 3807.00    0.78986   0.78684  186.536
 3808.00    0.80305   0.80098  179.662
 3809.00    0.82070   0.81681  176.663
 3810.00    0.83919   0.82517   -1.000
 3811.00    0.83933   0.81765   -1.000
 3812.00    0.81790   0.79531   -1.000
 3813.00    0.79205   0.76897   -1.000
 3814.00    0.77171   0.75201   -1.000
 3815.00    0.76602   0.75112   -1.000
 3816.00    0.78527   0.76253   -1.000
 3817.00    0.80083   0.77397   -1.000
 3818.00    0.80684   0.77375   -1.000
 3819.00    0.78125   0.76171   -1.000
 3820.00    0.75043   0.74873  217.803
 3821.00    0.75199   0.74512   -1.000
 3822.00    0.76697   0.74767   -1.000
 3823.00    0.77093   0.74344   -1.000
 3824.00    0.74693   0.72768   32.599
 3825.00    0.71845   0.70826   26.829
 3826.00    0.70368   0.69302   26.752
 3827.00    0.69842   0.68266   26.353
 3828.00    0.70227   0.67406   25.920
 3829.00    0.69662   0.66377   26.098
 3830.00    0.68008   0.64740   27.125
 3831.00    0.64758   0.62017   29.125
 3832.00    0.60270   0.58079   30.311
 3833.00    0.56240   0.53641   29.993
 3834.00    0.53986   0.50167   28.883
 3835.00    0.53074   0.48891   28.146
 3836.00    0.53671   0.50056   28.515
 3837.00    0.55868   0.52968   29.199
 3838.00    0.58899   0.56663   28.910
 3839.00    0.62304   0.60444   27.453
 3840.00    0.65582   0.64219   91.267
 3841.00    0.69298   0.68079   -1.000
 3842.00    0.72836   0.71932   -1.000
 3843.00    0.75756   0.75358  205.288
 3844.00    0.78088   0.77928  204.600
 3845.00    0.79799   0.79636  204.520
 3846.00    0.80530   0.80785  204.813
 3847.00    0.81334   0.81457  208.939
 3848.00    0.81838   0.81501  216.625
 3849.00    0.81192   0.81129  217.803
 3850.00    0.80837   0.81120  217.413
 3851.00    0.82024   0.81986  211.697
 3852.00    0.83129   0.83331  211.819
 3853.00    0.83653   0.84185  216.560
 3854.00    0.82981   0.83964  217.803
 3855.00    0.81731   0.82846  217.803
 3856.00    0.80868   0.81437  217.803
 3857.00    0.80800   0.80131   30.644
 3858.00    0.79372   0.79194   26.242
 3859.00    0.77517   0.78996   26.075
 3860.00    0.78222   0.79829   88.164
 3861.00    0.79786   0.81407  213.068
 3862.00    0.82618   0.82963  201.240
 3863.00    0.85629   0.83854   -1.000
 3864.00    0.86763   0.84030   -1.000
 3865.00    0.85713   0.83953   -1.000
 3866.00    0.84840   0.84103  211.448
 3867.00    0.85313   0.84535  217.803
 3868.00    0.84744   0.84808  217.803
 3869.00    0.82455   0.84366   -1.000
 3870.00    0.80502   0.83047   30.975
 3871.00    0.77557   0.81206   88.566
 3872.00    0.76382   0.79634   -1.000
 3873.00    0.77726   0.79052  205.699
 3874.00    0.80271   0.79432   -1.000
 3875.00    0.82450   0.79832   -1.000
 3876.00    0.80987   0.79290   -1.000
 3877.00    0.78117   0.77850  217.803
 3878.00    0.75508   0.76517  217.803
 3879.00    0.75065   0.76121  217.803
 3880.00    0.74756   0.76352  217.803
 3881.00    0.74081   0.76241   -1.000
 3882.00    0.72216   0.75312   -1.000
 3883.00    0.71558   0.73615   -1.000
 3884.00    0.71155   0.70935  203.552
 3885.00    0.68826   0.66970   -1.000
 3886.00    0.64776   0.61997   -1.000
 3887.00    0.61355   0.57269   -1.000
 3888.00    0.58333   0.54496   -1.000
 3889.00    0.57898   0.54922   -1.000
 3890.00    0.61952   0.58400   -1.000
 3891.00    0.67119   0.63449   -1.000
 3892.00    0.70763   0.68097   -1.000
 3893.00    0.73501   0.71228   -1.000
 3894.00    0.74696   0.73075   -1.000
 3895.00    0.74888   0.74459  169.359
 3896.00    0.77437   0.75883   -1.000
 3897.00    0.79015   0.77235   -1.000
 3898.00    0.79725   0.78147   -1.000
 3899.00    0.79897   0.78683  167.330
 3900.00    0.80853   0.79267   -1.000
 3901.00    0.82382   0.79924   -1.000
 3902.00    0.83736   0.80277   -1.000
 3903.00    0.83861   0.80104   -1.000
 3904.00    0.82727   0.79702   -1.000
 3905.00    0.81241   0.79681   -1.000
 3906.00    0.81706   0.80661   -1.000
 3907.00    0.83683   0.82723  161.849
 3908.00    0.86432   0.85253   -1.000
 3909.00    0.87548   0.87354  154.994
 3910.00    0.87900   0.88517  153.536
 3911.00    0.89284   0.88744  152.530
 3912.00    0.88803   0.88245  153.871
 3913.00    0.87310   0.87264  156.853
 3914.00    0.87177   0.86264  160.488
 3915.00    0.86781   0.85681  162.832
 3916.00    0.86352   0.85430  164.982
 3917.00    0.86528   0.85080   -1.000
 3918.00    0.86011   0.84398   -1.000
 3919.00    0.83589   0.83575  184.842
 3920.00    0.81848   0.82925  189.531
 3921.00    0.81620   0.82628  188.742
 3922.00    0.82056   0.82677  185.511
 3923.00    0.83499   0.82825  186.130
 3924.00    0.82363   0.82602  194.117
 3925.00    0.81333   0.81405  211.316
 3926.00    0.79175   0.78905  217.803
 3927.00    0.75236   0.75118   33.649
 3928.00    0.70398   0.70175   31.713
 3929.00    0.65201   0.64049   37.121
 3930.00    0.58452   0.56448   43.833
 3931.00    0.51420   0.47740   -1.000
 3932.00    0.44398   0.39709   -1.000
 3933.00    0.40351   0.35118   -1.000
 3934.00    0.41196   0.35907   -1.000
 3935.00    0.46517   0.41842   -1.000
 3936.00    0.54417   0.50570   33.692
 3937.00    0.61735   0.59628   28.219
 3938.00    0.67784   0.67459   97.271
 3939.00    0.72949   0.73394  217.803
 3940.00    0.76133   0.77335  217.660
 3941.00    0.78772   0.79554  214.619
 3942.00    0.79612   0.80511  214.218
 3943.00    0.79006   0.80941  205.161
 3944.00    0.80079   0.81578  187.613
 3945.00    0.82326   0.82684  175.676
 3946.00    0.84880   0.83875  172.390
 3947.00    0.85291   0.84550  171.068
 3948.00    0.84950   0.84541  165.587
 3949.00    0.85561   0.84188  160.033
 3950.00    0.85980   0.83867   -1.000
 3951.00    0.86209   0.83793   -1.000
 3952.00    0.86377   0.84147   -1.000
 3953.00    0.87004   0.84773   -1.000
 3954.00    0.87079   0.85099   -1.000
 3955.00    0.86584   0.84710   -1.000
 3956.00    0.85274   0.83827   -1.000
 3957.00    0.84753   0.83051   -1.000
 3958.00    0.85040   0.82525   -1.000
 3959.00    0.83921   0.81551   -1.000
 3960.00    0.80579   0.79486  203.991
 3961.00    0.76112   0.76415  217.803
 3962.00    0.72016   0.72820  217.803
 3963.00    0.68636   0.68780   31.460
 3964.00    0.64378   0.63520   29.911
 3965.00    0.57438   0.56311   36.557
 3966.00    0.48077   0.47457   44.813
 3967.00    0.39201   0.38844   50.499
 3968.00    0.33271   0.33224   48.307
 3969.00    0.32865   0.32693   40.525
 3970.00    0.37652   0.37246   33.299
 3971.00    0.45833   0.45101   27.782
 3972.00    0.54104   0.53782   97.185
 3973.00    0.61451   0.61563  209.924
 3974.00    0.67976   0.67896  188.541
 3975.00    0.73391   0.72913  173.156
 3976.00    0.77638   0.76904  162.439
 3977.00    0.81120   0.80133  153.763
 3978.00    0.84777   0.82715   -1.000
 3979.00    0.87256   0.84493   -1.000
 3980.00    0.88617   0.85346   -1.000
 3981.00    0.88680   0.85609   -1.000
 3982.00    0.88231   0.85940   -1.000
 3983.00    0.89846   0.86792   -1.000
 3984.00    0.91638   0.88091   -1.000
 3985.00    0.92810   0.89426   -1.000
 3986.00    0.92966   0.90530   -1.000
 3987.00    0.93395   0.91420  133.447
 3988.00    0.94681   0.92085   -1.000
 3989.00    0.95182   0.92540   -1.000
 3990.00    0.95804   0.93005   -1.000
 3991.00    0.96099   0.93700   -1.000
 3992.00    0.96892   0.94524  127.925
 3993.00    0.96961   0.95047  130.813
 3994.00    0.96205   0.94809  133.862
 3995.00    0.95179   0.93720  136.512
 3996.00    0.93645   0.92340  137.886
 3997.00    0.92291   0.91553  135.406
 3998.00    0.93151   0.91884  129.596
 3999.00    0.95547   0.93043   -1.000
 4000.00    0.96950   0.94304   -1.000
 4001.00    0.97966   0.95084   -1.000
 4002.00    0.98948   0.95149   -1.000
 4003.00    0.99060   0.94485   -1.000
 4004.00    0.96697   0.93399   -1.000
 4005.00    0.94170   0.92676  137.375
 4006.00    0.94649   0.93023  130.332
 4007.00    0.96908   0.94376   -1.000
 4008.00    0.98588   0.95970   -1.000
 4009.00    0.98643   0.97109  121.313
 4010.00    0.97056   0.97628  120.774
 4011.00    1.01823   0.97713   -1.000
 4012.00    1.00565   0.97641   -1.000
 4013.00    0.99280   0.97696  121.478
 4014.00    0.99983   0.98037  119.853
 4015.00    1.00729   0.98572  120.480
 4016.00    0.99868   0.99097  121.927
 4017.00    1.00212   0.99564  121.651
 4018.00    1.01768   1.00025  119.932
 4019.00    1.01498   1.00404  119.897
 4020.00    1.00839   1.00459  121.462
 4021.00    0.99748   1.00050  122.342
 4022.00    1.00000   0.99312  123.126
 4023.00    0.99512   0.98557  124.071
 4024.00    0.98951   0.98186  121.564
 4025.00    0.99450   0.98526  117.374
 4026.00    1.00769   0.99425  114.727
 4027.00    1.01545   1.00139  115.285
 4028.00    1.01054   0.99936  119.530
 4029.00    0.99072   0.98683  127.306
 4030.00    0.97009   0.96928  133.212
 4031.00    0.94998   0.95498  135.385
 4032.00    0.95545   0.94948  134.120
 4033.00    0.95707   0.95377  130.080
 4034.00    0.96905   0.96665  123.908
 4035.00    0.98906   0.98580  117.773
 4036.00    1.01621   1.00707  113.392
 4037.00    1.02968   1.02407  112.462
 4038.00    1.03809   1.03167  114.476
 4039.00    1.03887   1.02993  117.196
 4040.00    1.02422   1.02334  118.696
 4041.00    1.01775   1.01528  119.363
 4042.00    1.01767   1.00387  124.384
 4043.00    1.00533   0.98548  135.725
 4044.00    0.97417   0.96268  146.744
 4045.00    0.94091   0.94648  143.094
 4046.00    0.94623   0.94815  130.088
 4047.00    0.97914   0.96735  121.508
 4048.00    0.99838   0.99201  117.511
 4049.00    1.01953   1.01003  115.891
 4050.00    1.02807   1.01777  116.401
 4051.00    1.02707   1.01720  119.289
 4052.00    1.02196   1.01137  122.430
 4053.00    1.00494   1.00399  124.513
 4054.00    0.99933   0.99855  125.630
 4055.00    0.99961   0.99637  126.496
 4056.00    0.99306   0.99691  127.762
 4057.00    0.98649   1.00026  126.644
 4058.00    0.99386   1.00687  122.424
 4059.00    1.00477   1.01298  119.702
 4060.00    1.01774   1.01109  121.158
 4061.00    1.01017   0.99713  129.136
 4062.00    0.98026   0.97588  138.258
 4063.00    0.95410   0.95735  137.701
 4064.00    0.95135   0.94893  131.423
 4065.00    0.96601   0.95125  127.758
 4066.00    0.97672   0.95934  124.359
 4067.00    0.98671   0.96719  120.413
 4068.00    1.00808   0.97099   -1.000
 4069.00    1.01926   0.96838   -1.000
 4070.00    1.00353   0.95916   -1.000
 4071.00    0.97832   0.94886   -1.000
 4072.00    0.96949   0.94498  123.706
 4073.00    0.97872   0.94785   -1.000
 4074.00    0.97756   0.94917   -1.000
 4075.00    0.97003   0.94104   -1.000
 4076.00    0.94673   0.92525  143.184
 4077.00    0.92792   0.91273  139.587
 4078.00    0.92796   0.91453  130.542
 4079.00    0.95399   0.93171   -1.000
 4080.00    0.98267   0.95441   -1.000
 4081.00    0.99618   0.97050   -1.000
 4082.00    0.99878   0.97420   -1.000
 4083.00    0.98640   0.96819  124.512
 4084.00    0.97150   0.96017  123.131
 4085.00    0.96932   0.95748  119.230
 4086.00    0.98377   0.96263  114.689
 4087.00    0.99964   0.97247  110.897
 4088.00    1.01040   0.98096   -1.000
 4089.00    1.01521   0.98378   -1.000
 4090.00    1.00154   0.98092  115.122
 4091.00    0.98722   0.97456  116.533
 4092.00    0.97444   0.96520  116.788
 4093.00    0.96421   0.95195  118.672
 4094.00    0.96032   0.93431   -1.000
 4095.00    0.93325   0.91240  128.120
 4096.00    0.90591   0.88628  129.473
 4097.00    0.88540   0.85415   -1.000
 4098.00    0.85866   0.81234   -1.000
 4099.00    0.81005   0.75963   -1.000
 4100.00    0.75104   0.70515   -1.000
 4101.00    0.69308   0.66971   -1.000
 4102.00    0.68163   0.67312  147.377
 4103.00    0.73690   0.71574  135.711
 4104.00    0.80688   0.77743   -1.000
 4105.00    0.85886   0.83438  123.740
 4106.00    0.89175   0.87432  122.746
 4107.00    0.90729   0.89798  123.713
 4108.00    0.91601   0.91148  126.000
 4109.00    0.92375   0.92072  127.955
 4110.00    0.94006   0.92989  126.786
 4111.00    0.95455   0.94111  124.046
 4112.00    0.96744   0.95448  121.823
 4113.00    0.97977   0.96891  119.925
 4114.00    0.98559   0.98236  118.671
 4115.00    0.99465   0.99123  119.047
 4116.00    0.99619   0.99220  121.363
 4117.00    1.00064   0.98564  125.317
 4118.00    0.98315   0.97619  127.143
 4119.00    0.96910   0.96995  125.903
 4120.00    0.97497   0.96974  124.548
 4121.00    0.98270   0.97372  124.507
 4122.00    0.98899   0.97897  123.350
 4123.00    0.99705   0.98482  121.243
 4124.00    1.00512   0.99120  120.619
 4125.00    1.01446   0.99596  122.013
 4126.00    1.00909   0.99637  124.556
 4127.00    1.00392   0.99285  125.795
 4128.00    0.99671   0.98861  126.469
 4129.00    0.98933   0.98485  127.950
 4130.00    0.99042   0.97957  131.719
 4131.00    0.98089   0.97241  135.911
 4132.00    0.96559   0.96817  136.745
 4133.00    0.96207   0.97257  132.772
 4134.00    0.97269   0.98564  126.274
 4135.00    0.99770   1.00241  121.885
 4136.00    1.01824   1.01833  119.694
 4137.00    1.03559   1.03178  117.822
 4138.00    1.03645   1.04175  117.195
 4139.00    1.04422   1.04524  119.273
 4140.00    1.04088   1.03865  125.137
 4141.00    1.02024   1.02209  135.314
 4142.00    0.99197   1.00188  143.052
 4143.00    0.96732   0.98831   -1.000
 4144.00    0.97255   0.98844  131.125
 4145.00    0.99583   0.99982  125.870
 4146.00    1.02180   1.01280  124.185
 4147.00    1.02937   1.01996  126.150
 4148.00    1.01875   1.02149  129.592
 4149.00    1.00950   1.02141  131.450
 4150.00    1.00964   1.02164  130.775
 4151.00    1.00993   1.02085  129.985
 4152.00    1.01254   1.01742  130.983
 4153.00    0.99339   1.01214  133.059
 4154.00    1.03958   1.00812   -1.000
 4155.00    1.24465   1.00857   -1.000
 4156.00    1.16475   1.01437   -1.000
 4157.00    0.76837   1.02347   -1.000
 4158.00    0.87740   1.03230   -1.000
 4159.00    1.06336   1.03805  125.352
 4160.00    1.03737   1.04056  121.808
 4161.00    1.03171   1.04198  120.180
 4162.00    1.03349   1.04469  120.683
 4163.00    1.04150   1.04914  122.556
 4164.00    1.04684   1.05319  124.415
 4165.00    1.04486   1.05364  127.127
 4166.00    1.03188   1.04984  129.189
 4167.00    1.02269   1.04470   -1.000
 4168.00    1.02791   1.04021  126.396
 4169.00    1.03244   1.03374  127.325
 4170.00    1.02236   1.02058  134.272
 4171.00    0.99616   1.00129  142.521
 4172.00    0.96390   0.98425   -1.000
 4173.00    0.95553   0.97845   -1.000
 4174.00    0.96086   0.98516   -1.000
 4175.00    0.98144   0.99686   -1.000
 4176.00    0.97978   1.00491   -1.000
 4177.00    0.98400   1.00810   -1.000
 4178.00    0.99193   1.01141   -1.000
 4179.00    1.00133   1.01782   -1.000
 4180.00    1.00904   1.02418   -1.000
 4181.00    1.00566   1.02668   -1.000
 4182.00    1.00693   1.02723   -1.000
 4183.00    1.00977   1.02919   -1.000
 4184.00    1.01552   1.03117  124.358
 4185.00    1.01072   1.02930   -1.000
 4186.00    0.99844   1.02319   -1.000
 4187.00    0.99175   1.01756   -1.000
 4188.00    0.99185   1.01694   -1.000
 4189.00    0.99998   1.02050   -1.000
 4190.00    1.01265   1.02462  125.852
 4191.00    1.00978   1.02807  123.210
 4192.00    1.02226   1.03202  121.465
 4193.00    1.03919   1.03559  124.499
 4194.00    1.03311   1.03436  130.831
 4195.00    1.01710   1.02501  135.449
 4196.00    0.99961   1.00953  138.035
 4197.00    0.98358   0.99342  138.536
 4198.00    0.97740   0.98196  137.180
 4199.00    0.97232   0.97768  135.024
 4200.00    0.98361   0.97905  134.481
 4201.00    0.98762   0.98274  133.671
 4202.00    0.99154   0.98804  131.669
 4203.00    0.99820   0.99617  130.614
 4204.00    0.99266   1.00637  128.218
 4205.00    0.99766   1.01635   -1.000
 4206.00    1.00426   1.02473   -1.000
 4207.00    1.01621   1.03069  121.781
 4208.00    1.02299   1.03379  122.195
 4209.00    1.02385   1.03543  122.014
 4210.00    1.01682   1.03821   -1.000
 4211.00    1.02810   1.04252  121.758
 4212.00    1.03489   1.04419  125.468
 4213.00    1.02548   1.03797  131.120
 4214.00    1.00702   1.02467   -1.000
 4215.00    0.98400   1.01230   -1.000
 4216.00    0.98358   1.00932   -1.000
 4217.00    1.00149   1.01740  117.366
 4218.00    1.02213   1.03067  113.933
 4219.00    1.03610   1.04219  112.536
 4220.00    1.03608   1.04822  113.359
 4221.00    1.02656   1.04659   -1.000
 4222.00    1.01975   1.03427  125.717
 4223.00    1.00860   1.00912  137.885
 4224.00    0.97599   0.97467  156.048
 4225.00    0.93451   0.94269  169.652
 4226.00    0.90135   0.92843   -1.000
 4227.00    0.90427   0.94144   -1.000
 4228.00    0.94893   0.97676   -1.000
 4229.00    0.99480   1.01579   -1.000
 4230.00    1.01961   1.03962   -1.000
 4231.00    1.02513   1.04295   -1.000
 4232.00    1.01104   1.03319   -1.000
 4233.00    1.00165   1.02083   -1.000
 4234.00    0.99342   1.01322   -1.000
 4235.00    0.98906   1.01220   -1.000
 4236.00    0.98375   1.01543   -1.000
 4237.00    0.98940   1.02077   -1.000
 4238.00    0.99070   1.02796   -1.000
 4239.00    0.99757   1.03719   -1.000
 4240.00    1.01329   1.04784   -1.000
 4241.00    1.01887   1.05766   -1.000
 4242.00    1.02162   1.06384   -1.000
 4243.00    1.01977   1.06473   -1.000
 4244.00    1.02364   1.05957   -1.000
 4245.00    1.01916   1.04829   -1.000
 4246.00    1.00188   1.03303   -1.000
 4247.00    0.98879   1.01870   -1.000
 4248.00    0.97343   1.00935   -1.000
 4249.00    0.96594   1.00620   -1.000
 4250.00    0.96943   1.00948   -1.000
 4251.00    0.98447   1.01778   -1.000
 4252.00    1.00493   1.02644   -1.000
 4253.00    1.00648   1.03155   -1.000
 4254.00    1.00167   1.03427   -1.000
 4255.00    1.00455   1.03796   -1.000
 4256.00    1.01379   1.04187   -1.000
 4257.00    1.01726   1.04085   -1.000
 4258.00    1.00169   1.03243   -1.000
 4259.00    0.98814   1.02179   -1.000
 4260.00    0.97644   1.01777   -1.000
 4261.00    0.98063   1.02525   -1.000
 4262.00    1.00812   1.04142   -1.000
 4263.00    1.02788   1.05829   -1.000
 4264.00    1.04158   1.06886   -1.000
 4265.00    1.03438   1.07134   -1.000
 4266.00    1.03177   1.06755   -1.000
 4267.00    1.02403   1.05864   -1.000
 4268.00    1.01205   1.04423   -1.000
 4269.00    1.00347   1.02470   -1.000
 4270.00    0.97382   1.00353   -1.000
 4271.00    0.94862   0.98709   -1.000
 4272.00    0.94101   0.98058   -1.000
 4273.00    0.94832   0.98487   -1.000
 4274.00    0.95236   0.99759   -1.000
 4275.00    0.96661   1.01600   -1.000
 4276.00    0.99940   1.03656   -1.000
 4277.00    1.02544   1.05308   -1.000
 4278.00    1.03279   1.05963   -1.000
 4279.00    1.01836   1.05541   -1.000
 4280.00    0.99785   1.04540   -1.000
 4281.00    0.99357   1.03645   -1.000
 4282.00    0.98948   1.03233   -1.000
 4283.00    0.99473   1.03205   -1.000
 4284.00    0.99269   1.03155   -1.000
 4285.00    0.97463   1.02620   -1.000
 4286.00    0.96653   1.01356   -1.000
 4287.00    0.96122   0.99484   -1.000
 4288.00    0.94561   0.97477   -1.000
 4289.00    0.92210   0.96068   -1.000
 4290.00    0.91250   0.95901   -1.000
 4291.00    0.92723   0.96897   -1.000
 4292.00    0.95320   0.98153   -1.000
 4293.00    0.96540   0.98787   -1.000
 4294.00    0.96868   0.98727  131.254
 4295.00    0.96458   0.98305   -1.000
 4296.00    0.94894   0.97456   -1.000
 4297.00    0.92766   0.95856   -1.000
 4298.00    0.89910   0.93544   -1.000
 4299.00    0.86728   0.91095   -1.000
 4300.00    0.85553   0.89304   -1.000
 4301.00    0.85854   0.88657   -1.000
 4302.00    0.86079   0.89091   -1.000
 4303.00    0.86401   0.90136   -1.000
 4304.00    0.87753   0.91079   -1.000
 4305.00    0.88266   0.91262   -1.000
 4306.00    0.87874   0.90617   -1.000
 4307.00    0.86751   0.89771   -1.000
 4308.00    0.84445   0.89520   -1.000
 4309.00    0.83611   0.90189   -1.000
 4310.00    0.85556   0.91439   -1.000
 4311.00    0.87547   0.92668   -1.000
 4312.00    0.89286   0.93644   -1.000
 4313.00    0.90722   0.94804   -1.000
 4314.00    0.93567   0.96843   -1.000
 4315.00    0.97806   0.99923  109.976
 4316.00    1.01659   1.03302  105.837
 4317.00    1.04196   1.05822  105.619
 4318.00    1.05839   1.06869  107.197
 4319.00    1.05545   1.06652  109.599
 4320.00    1.03522   1.05712   -1.000
 4321.00    1.02462   1.04354  118.761
 4322.00    1.00694   1.02523  127.405
 4323.00    0.97506   1.00214   -1.000
 4324.00    0.93964   0.98043   -1.000
 4325.00    0.91820   0.97166   -1.000
 4326.00    0.93926   0.98210   -1.000
 4327.00    0.97796   1.00483   -1.000
 4328.00    1.00282   1.02566  110.570
 4329.00    1.01701   1.03563  110.930
 4330.00    1.01985   1.03642  110.383
 4331.00    1.01326   1.03417  108.501
 4332.00    1.00337   1.03074   -1.000
 4333.00    1.00192   1.02246  107.070
 4334.00    0.99958   1.00422  108.809
 4335.00    0.97561   0.97185  115.574
 4336.00    0.93409   0.92299  126.680
 4337.00    0.87615   0.85983  138.531
 4338.00    0.80942   0.79331  150.089
 4339.00    0.74563   0.74233  154.223
 4340.00    0.70423   0.72561   -1.000
 4341.00    0.73217   0.75101  129.429
 4342.00    0.80343   0.80833  121.221
 4343.00    0.87022   0.87441  117.237
 4344.00    0.91576   0.93014  114.036
 4345.00    0.95320   0.97103  112.047
 4346.00    0.97281   1.00075   -1.000
 4347.00    0.98716   1.02132   -1.000
 4348.00    1.00108   1.03045   -1.000
 4349.00    1.01292   1.02581  115.056
 4350.00    0.99919   1.01145  123.674
 4351.00    0.96812   0.99861   -1.000
 4352.00    0.96431   0.99826   -1.000
 4353.00    0.98510   1.01289   -1.000
 4354.00    1.01143   1.03532  111.781
 4355.00    1.02641   1.05524   -1.000
 4356.00    1.04002   1.06665   -1.000
 4357.00    1.04180   1.06985   -1.000
 4358.00    1.03905   1.06921   -1.000
 4359.00    1.03634   1.06998   -1.000
 4360.00    1.04127   1.07496   -1.000
 4361.00    1.04923   1.08310   -1.000
 4362.00    1.06694   1.09138  105.956
 4363.00    1.07159   1.09707  104.790
 4364.00    1.07016   1.09838   -1.000
 4365.00    1.07315   1.09428  107.772
 4366.00    1.05506   1.08523   -1.000
 4367.00    1.04463   1.07441   -1.000
 4368.00    1.03780   1.06603   -1.000
 4369.00    1.03984   1.06156  111.337
 4370.00    1.04317   1.05889  111.217
 4371.00    1.04760   1.05405  112.287
 4372.00    1.04737   1.04387  116.768
 4373.00    1.03192   1.02944  121.452
 4374.00    1.00707   1.01792  121.717
 4375.00    0.99944   1.01849  116.845
 4376.00    1.01735   1.03360  110.978
 4377.00    1.04310   1.05521  108.874
 4378.00    1.06113   1.07130  109.439
 4379.00    1.06311   1.07455  111.365
 4380.00    1.06386   1.06336  116.530
 4381.00    1.04463   1.03900  129.224
 4382.00    1.00906   1.00769  143.965
 4383.00    0.96505   0.98184   -1.000
 4384.00    0.95044   0.97313   -1.000
 4385.00    0.97522   0.98380  120.416
 4386.00    1.00731   1.00534  116.229
 4387.00    1.03167   1.02604  116.189
 4388.00    1.03739   1.03942  117.437
 4389.00    1.02745   1.04567  117.847
 4390.00    1.03154   1.04822  115.641
 4391.00    1.03866   1.04948  113.030
 4392.00    1.05522   1.04815  113.687
 4393.00    1.04981   1.04229  116.188
 4394.00    1.03544   1.03537  115.861
 4395.00    1.03147   1.03476  110.668
 4396.00    1.04008   1.04198  107.376
 4397.00    1.06047   1.04974  108.744
 4398.00    1.06534   1.05079  112.736
 4399.00    1.04558   1.04597  116.128
 4400.00    1.02855   1.04179  114.910
 4401.00    1.03726   1.04182  112.829
 4402.00    1.05214   1.04316  116.623
 4403.00    1.04929   1.04190  123.444
 4404.00    1.03179   1.03893  124.657
 4405.00    1.02609   1.03843  120.579
 4406.00    1.03799   1.04211  118.743
 4407.00    1.04056   1.04826  117.674
 4408.00    1.03728   1.05610  113.248
 4409.00    1.04298   1.06692   -1.000
 4410.00    1.06584   1.07952  104.680
 4411.00    1.09011   1.08834  103.384
 4412.00    1.09509   1.08743  106.087
 4413.00    1.08576   1.07518  112.175
 4414.00    1.05329   1.05602  116.313
 4415.00    1.02581   1.03919  115.772
 4416.00    1.01751   1.03383  111.779
 4417.00    1.02979   1.04319  107.129
 4418.00    1.05199   1.06243  104.068
 4419.00    1.06878   1.08163  104.591
 4420.00    1.07788   1.09256  107.334
 4421.00    1.06650   1.09405   -1.000
 4422.00    1.05577   1.09112   -1.000
 4423.00    1.05341   1.08841   -1.000
 4424.00    1.04964   1.08630   -1.000
 4425.00    1.04579   1.08394   -1.000
 4426.00    1.03937   1.08260   -1.000
 4427.00    1.03627   1.08442   -1.000
 4428.00    1.04406   1.08924   -1.000
 4429.00    1.05049   1.09451   -1.000
 4430.00    1.05447   1.09782   -1.000
 4431.00    1.06217   1.09786   -1.000
 4432.00    1.06403   1.09347   -1.000
 4433.00    1.05640   1.08468   -1.000
 4434.00    1.03797   1.07559   -1.000
 4435.00    1.02595   1.07393   -1.000
 4436.00    1.04453   1.08468   -1.000
 4437.00    1.07813   1.10359  101.515
 4438.00    1.10421   1.11930  101.149
 4439.00    1.11557   1.12163  104.312
 4440.00    1.10182   1.10851  109.332
 4441.00    1.07407   1.08694  113.984
 4442.00    1.04773   1.06868   -1.000
 4443.00    1.03030   1.06369   -1.000
 4444.00    1.03572   1.07389   -1.000
 4445.00    1.06213   1.09207   -1.000
 4446.00    1.08573   1.10806  103.490
 4447.00    1.10247   1.11663  103.689
 4448.00    1.09380   1.11880   -1.000
 4449.00    1.09141   1.11778   -1.000
 4450.00    1.08828   1.11614   -1.000
 4451.00    1.08671   1.11434   -1.000
 4452.00    1.09116   1.10985  109.655
 4453.00    1.08777   1.10026  114.737
 4454.00    1.05984   1.08835   -1.000
 4455.00    1.04628   1.08127   -1.000
 4456.00    1.05176   1.08278   -1.000
 4457.00    1.07013   1.08925  113.229
 4458.00    1.08228   1.09438  113.815
 4459.00    1.07255   1.09571   -1.000
 4460.00    1.06777   1.09533   -1.000
 4461.00    1.06520   1.09659   -1.000
 4462.00    1.06788   1.10088   -1.000
 4463.00    1.08696   1.10647  106.708
 4464.00    1.09831   1.11017  106.520
 4465.00    1.09914   1.10943  106.596
 4466.00    1.09448   1.10336  107.800
 4467.00    1.08441   1.09395  109.885
 4468.00    1.07517   1.08650  110.572
 4469.00    1.06190   1.08683   -1.000
 4470.00    1.07129   1.09698   -1.000
 4471.00    1.09048   1.11344   -1.000
 4472.00    1.11615   1.12990   99.188
 4473.00    1.13366   1.14154   98.322
 4474.00    1.14027   1.14720   98.498
 4475.00    1.13564   1.14890   97.647
 4476.00    1.13352   1.14900   97.070
 4477.00    1.13444   1.14704   97.930
 4478.00    1.14258   1.13964  101.545
 4479.00    1.13634   1.12547  106.180
 4480.00    1.11364   1.10972  109.211
 4481.00    1.08918   1.10152  108.041
 4482.00    1.08092   1.10672   -1.000
 4483.00    1.10027   1.12319   99.560
 4484.00    1.12540   1.14245   97.410
 4485.00    1.14090   1.15570   97.533
 4486.00    1.14591   1.15841   99.748
 4487.00    1.14184   1.15147  103.591
 4488.00    1.12423   1.14062  106.004
 4489.00    1.11218   1.13349   -1.000
 4490.00    1.11187   1.13409   -1.000
 4491.00    1.11953   1.13951   -1.000
 4492.00    1.12620   1.14299  101.914
 4493.00    1.12446   1.14107  105.054
 4494.00    1.11964   1.13659  107.335
 4495.00    1.11699   1.13430  106.200
 4496.00    1.11000   1.13589   -1.000
 4497.00    1.12369   1.13929   99.634
 4498.00    1.14140   1.14057   98.609
 4499.00    1.13771   1.13727   99.766
 4500.00    1.12513   1.13213  100.319
 4501.00    1.12597   1.13202   97.746
 4502.00    1.13442   1.14085   94.369
 4503.00    1.15251   1.15498   92.688
 4504.00    1.16451   1.16654   93.302
 4505.00    1.16382   1.17050   95.222
 4506.00    1.16332   1.16768   96.168
 4507.00    1.15749   1.16281   96.249
 4508.00    1.15038   1.16067   95.512
 4509.00    1.15455   1.16247   94.843
 4510.00    1.16725   1.16541   95.641
 4511.00    1.16877   1.16605   97.542
 4512.00    1.16049   1.16367   99.291
 4513.00    1.14935   1.15953   99.917
 4514.00    1.14932   1.15510   99.425
 4515.00    1.14939   1.15137   99.348
 4516.00    1.13616   1.14834  100.560
 4517.00    1.13137   1.14508  101.156
 4518.00    1.13117   1.14153   99.447
 4519.00    1.13178   1.13903   97.474
 4520.00    1.13687   1.13800   97.758
 4521.00    1.13714   1.13655  100.081
 4522.00    1.12639   1.13313  102.121
 4523.00    1.12154   1.12891  103.001
 4524.00    1.12315   1.12559  104.728
 4525.00    1.12318   1.12228  107.945
 4526.00    1.11845   1.11658  111.003
 4527.00    1.10819   1.10834  112.345
 4528.00    1.09135   1.10083  111.534
 4529.00    1.09327   1.09770  109.568
 4530.00    1.10603   1.09872  107.562
 4531.00    1.10284   1.09907  107.027
 4532.00    1.10373   1.09411  110.028
 4533.00    1.09031   1.08555  113.788
 4534.00    1.07152   1.08149  112.328
 4535.00    1.07336   1.08888  105.919
 4536.00    1.10089   1.10721   99.649
 4537.00    1.13358   1.12940   96.953
 4538.00    1.15700   1.14702   97.884
 4539.00    1.16129   1.15540  100.264
 4540.00    1.15765   1.15573  100.173
 4541.00    1.15028   1.15287   99.436
 4542.00    1.18791   1.15069   99.062
 4543.00    1.01169   1.14955   -1.000
 4544.00    0.17050   1.14798   -2.000
 4545.00   -0.00243   1.14521   -2.000
 4546.00    0.17997   1.14042   -2.000
 4547.00    0.91913   1.13160   -1.000
 4548.00    0.30520   1.11901   -1.000
 4549.00    0.92877   1.10860   -1.000
 4550.00    1.11043   1.10713  103.963
 4551.00    1.11494   1.11320  103.855
 4552.00    1.12390   1.11780  105.479
 4553.00    1.11251   1.11541  106.459
 4554.00    1.09831   1.11041  104.862
 4555.00    1.10544   1.11154  101.021
 4556.00    1.12623   1.12263   96.942
 4557.00    1.14421   1.13954   95.233
 4558.00    1.15412   1.15528   95.761
 4559.00    1.16097   1.16605   95.707
 4560.00    1.16376   1.17109   95.744
 4561.00    1.16991   1.16952   97.976
 4562.00    1.16048   1.16152  100.431
 4563.00    1.14309   1.15156  102.154
 4564.00    1.13300   1.14656  101.035
 4565.00    1.13518   1.15009   98.459
 4566.00    1.14706   1.15945   95.848
 4567.00    1.15864   1.16840   94.884
 4568.00    1.16940   1.17156   95.931
 4569.00    1.16965   1.16693   98.380
 4570.00    1.15178   1.15660  100.977
 4571.00    1.12785   1.14663  100.248
 4572.00    1.12695   1.14416   97.205
 4573.00    1.14154   1.15092   95.812
 4574.00    1.15859   1.16076   95.869
 4575.00    1.16384   1.16644   96.314
 4576.00    1.16312   1.16627   96.875
 4577.00    1.15650   1.16223   98.539
 4578.00    1.15153   1.15545  101.509
 4579.00    1.14712   1.14637  103.610
 4580.00    1.12840   1.13687  103.322
 4581.00    1.12628   1.12931  101.854
 4582.00    1.13043   1.12463  101.100
 4583.00    1.12576   1.12346  101.404
 4584.00    1.12787   1.12683  102.048
 4585.00    1.13961   1.13409  100.633
 4586.00    1.15118   1.14222   97.979
 4587.00    1.15354   1.14842   95.894
 4588.00    1.15835   1.15177   95.754
 4589.00    1.15557   1.15287   97.166
 4590.00    1.14838   1.15278   98.988
 4591.00    1.14613   1.15217  100.727
 4592.00    1.14065   1.15202  100.820
 4593.00    1.14254   1.15379   99.955
 4594.00    1.14987   1.15797   99.167
 4595.00    1.15582   1.16342   98.904
 4596.00    1.16159   1.16832   98.697
 4597.00    1.16794   1.17087   98.475
 4598.00    1.16727   1.16997   99.349
 4599.00    1.16394   1.16591  100.245
 4600.00    1.15803   1.16039  100.524
 4601.00    1.14942   1.15599   99.450
 4602.00    1.14515   1.15476   98.329
 4603.00    1.14626   1.15685   98.498
 4604.00    1.15343   1.16064   98.333
 4605.00    1.16420   1.16442   97.257
 4606.00    1.17598   1.16817   95.323
 4607.00    1.16908   1.17276   93.276
 4608.00    1.17473   1.17797   92.181
 4609.00    1.18821   1.18191   92.603
 4610.00    1.18776   1.18264   93.892
 4611.00    1.18776   1.18053   94.935
 4612.00    1.18035   1.17793   95.548
 4613.00    1.17326   1.17650   95.067
 4614.00    1.17509   1.17591   94.213
 4615.00    1.16817   1.17486   93.839
 4616.00    1.16882   1.17273   94.478
 4617.00    1.17163   1.17009   95.183
 4618.00    1.17279   1.16827   95.086
 4619.00    1.16679   1.16902   94.168
 4620.00    1.17237   1.17336   92.659
 4621.00    1.18251   1.17994   92.644
 4622.00    1.18725   1.18538   92.883
 4623.00    1.18878   1.18700   93.065
 4624.00    1.18397   1.18502   93.932
 4625.00    1.17918   1.18172   94.155
 4626.00    1.17957   1.17890   94.102
 4627.00    1.17907   1.17662   94.721
 4628.00    1.17372   1.17460   94.919
 4629.00    1.16535   1.17392   94.434
 4630.00    1.17886   1.17595   93.330
 4631.00    1.17865   1.17961   93.767
 4632.00    1.18575   1.18182   95.157
 4633.00    1.17731   1.18109   96.205
 4634.00    1.18077   1.17907   96.102
 4635.00    1.18972   1.17800   96.895
 4636.00    1.18082   1.17805   98.193
 4637.00    1.17375   1.17823   98.584
 4638.00    1.17209   1.17879   98.437
 4639.00    1.17776   1.18115   96.741
 4640.00    1.18902   1.18588   94.352
 4641.00    1.19227   1.19141   93.071
 4642.00    1.19753   1.19507   93.476
 4643.00    1.19961   1.19497   95.246
 4644.00    1.19375   1.19088   97.958
 4645.00    1.18384   1.18394  100.676
 4646.00    1.16926   1.17645  101.069
 4647.00    1.16081   1.17211   99.240
 4648.00    1.16538   1.17363   96.902
 4649.00    1.17978   1.17970   95.588
 4650.00    1.18898   1.18616   95.441
 4651.00    1.18540   1.18967   95.242
 4652.00    1.18123   1.18928   96.403
 4653.00    1.17620   1.18567   98.672
 4654.00    1.16648   1.18055   99.788
 4655.00    1.15704   1.17655   98.896
 4656.00    1.15661   1.17650   95.697
 4657.00    1.16937   1.18236   92.006
 4658.00    1.18710   1.19351   89.966
 4659.00    1.20432   1.20559   89.911
 4660.00    1.21002   1.21298   91.058
 4661.00    1.21108   1.21308   93.328
 4662.00    1.20005   1.20760   95.161
 4663.00    1.20147   1.19966   95.349
 4664.00    1.19560   1.19062   96.949
 4665.00    1.18191   1.17979  101.194
 4666.00    1.17313   1.16733  105.414
 4667.00    1.15037   1.15661  105.438
 4668.00    1.14055   1.15245  102.125
 4669.00    1.15705   1.15665   97.808
 4670.00    1.17052   1.16659   95.193
 4671.00    1.18337   1.17755   94.673
 4672.00    1.19079   1.18582   94.762
 4673.00    1.19639   1.19083   94.658
 4674.00    1.19928   1.19442   93.397
 4675.00    1.20675   1.19772   91.981
 4676.00    1.20332   1.19930   92.490
 4677.00    1.20116   1.19689   94.547
 4678.00    1.19869   1.19046   96.416
 4679.00    1.18970   1.18255   98.003
 4680.00    1.18298   1.17607   98.935
 4681.00    1.17318   1.17308   97.648
 4682.00    1.17812   1.17436   95.141
 4683.00    1.18144   1.17874   93.923
 4684.00    1.19702   1.18357   94.285
 4685.00    1.20608   1.18671   94.314
 4686.00    1.20817   1.18790   94.869
 4687.00    1.19892   1.18815   94.859
 4688.00    1.20354   1.18831   94.868
 4689.00    1.20497   1.18839   95.574
 4690.00    1.19334   1.18807   95.759
 4691.00    1.19305   1.18772   94.584
 4692.00    1.19783   1.18829   93.165
 4693.00    1.20510   1.18998   91.063
 4694.00    1.20943   1.19206   89.926
 4695.00    1.21569   1.19335   90.416
 4696.00    1.21994   1.19228   93.099
 4697.00    1.21154   1.18772   95.925
 4698.00    1.20085   1.18075   96.991
 4699.00    1.20202   1.17384   96.155
 4700.00    1.20388   1.16810   96.921
 4701.00    1.19300   1.16294   98.676
 4702.00    1.17766   1.15869   99.153
 4703.00    1.16973   1.15742   97.197
 4704.00    1.18123   1.16013   95.774
 4705.00    1.19419   1.16409   97.198
 4706.00    1.18847   1.16512   99.177
 4707.00    1.17588   1.16221  100.104
 4708.00    1.17199   1.15891   99.533
 4709.00    1.17259   1.15965   96.520
 4710.00    1.17989   1.16529   93.876
 4711.00    1.19756   1.17235   92.999
 4712.00    1.20791   1.17658   93.950
 4713.00    1.20432   1.17683   95.766
 4714.00    1.19783   1.17589   95.710
 4715.00    1.20095   1.17752   93.745
 4716.00    1.20320   1.18279   91.942
 4717.00    1.21394   1.18955   91.414
 4718.00    1.20717   1.19509   91.098
 4719.00    1.21189   1.19842   90.786
 4720.00    1.21505   1.19985   91.600
 4721.00    1.20597   1.20011   92.247
 4722.00    1.19731   1.20040   91.665
 4723.00    1.20100   1.20171   90.652
 4724.00    1.21152   1.20339   90.832
 4725.00    1.21232   1.20332   93.120
 4726.00    1.20588   1.19986   96.726
 4727.00    1.19701   1.19323   98.841
 4728.00    1.19222   1.18549   98.387
 4729.00    1.19324   1.17897   97.357
 4730.00    1.19979   1.17511   96.600
 4731.00    1.19908   1.17491   95.418
 4732.00    1.20199   1.17842   94.602
 4733.00    1.19470   1.18350   94.074
 4734.00    1.19438   1.18703   93.550
 4735.00    1.19640   1.18766   94.618
 4736.00    1.19614   1.18651   94.704
 4737.00    1.18702   1.18579   93.424
 4738.00    1.19224   1.18655   93.514
 4739.00    1.20492   1.18815   94.080
 4740.00    1.20676   1.18976   94.187
 4741.00    1.20827   1.19166   93.396
 4742.00    1.20560   1.19461   92.364
 4743.00    1.21571   1.19835   92.598
 4744.00    1.21584   1.20166   92.675
 4745.00    1.20863   1.20406   91.951
 4746.00    1.20613   1.20662   91.008
 4747.00    1.21164   1.21040   90.846
 4748.00    1.21390   1.21477   90.998
 4749.00    1.21009   1.21844   91.055
 4750.00    1.21908   1.22092   91.745
 4751.00    1.21697   1.22191   92.805
 4752.00    1.20163   1.22083   93.572
 4753.00    1.19900   1.21805   94.208
 4754.00    1.20208   1.21517   94.009
 4755.00    1.20343   1.21369   94.399
 4756.00    1.20067   1.21393   95.116
 4757.00    1.19527   1.21515   95.194
 4758.00    1.19742   1.21603   94.365
 4759.00    1.20471   1.21518   94.221
 4760.00    1.20173   1.21142   95.766
 4761.00    1.19037   1.20439   98.211
 4762.00    1.18113   1.19563   99.426
 4763.00    1.17228   1.18841   99.529
 4764.00    1.16732   1.18570   99.308
 4765.00    1.18155   1.18838   98.588
 4766.00    1.19804   1.19514   97.193
 4767.00    1.20045   1.20381   94.943
 4768.00    1.20596   1.21238   93.662
 4769.00    1.20845   1.21896   93.881
 4770.00    1.20924   1.22187   94.707
 4771.00    1.20630   1.22124   95.548
 4772.00    1.20276   1.21968   94.357
 4773.00    1.20265   1.22025   92.292
 4774.00    1.21035   1.22353   91.722
 4775.00    1.22121   1.22729   91.824
 4776.00    1.22640   1.22906   92.103
 4777.00    1.22304   1.22794   92.720
 4778.00    1.21518   1.22444   93.788
 4779.00    1.20766   1.22023   94.318
 4780.00    1.20842   1.21762   94.541
 4781.00    1.21169   1.21740   95.015
 4782.00    1.20594   1.21793   95.798
 4783.00    1.20359   1.21722   95.720
 4784.00    1.20289   1.21503   96.061
 4785.00    1.19926   1.21214   97.051
 4786.00    1.19328   1.20944   97.592
 4787.00    1.19747   1.20788   97.464
 4788.00    1.18782   1.20823   96.967
 4789.00    1.19182   1.21067   96.363
 4790.00    1.19562   1.21532   95.337
 4791.00    1.21252   1.22216   93.744
 4792.00    1.21451   1.23024   91.623
 4793.00    1.21799   1.23793   90.074
 4794.00    1.22081   1.24350   89.800
 4795.00    1.22292   1.24548   90.763
 4796.00    1.22135   1.24340   92.646
 4797.00    1.22005   1.23837   94.376
 4798.00    1.20759   1.23309   -1.000
 4799.00    1.20185   1.23083   -1.000
 4800.00    1.20738   1.23312   -1.000
 4801.00    1.21808   1.23819   91.268
 4802.00    1.21695   1.24173   -1.000
 4803.00    1.22428   1.23996   92.752
 4804.00    1.21999   1.23328   93.937
 4805.00    1.20416   1.22633   94.775
 4806.00    1.20372   1.22352   94.708
 4807.00    1.20957   1.22558   94.461
 4808.00    1.21216   1.23020   94.027
 4809.00    1.21805   1.23444   93.151
 4810.00    1.21719   1.23682   92.493
 4811.00    1.21485   1.23825   -1.000
 4812.00    1.22005   1.24055   91.956
 4813.00    1.21643   1.24440   -1.000
 4814.00    1.22391   1.24878   -1.000
 4815.00    1.23487   1.25230   90.799
 4816.00    1.23053   1.25440   90.237
 4817.00    1.23266   1.25524   89.880
 4818.00    1.23277   1.25501   89.864
 4819.00    1.23109   1.25375   89.870
 4820.00    1.22713   1.25088   90.704
 4821.00    1.22555   1.24509   93.194
 4822.00    1.22092   1.23596   94.935
 4823.00    1.20521   1.22601   94.657
 4824.00    1.20210   1.21985   92.906
 4825.00    1.20191   1.22002   91.481
 4826.00    1.21456   1.22440   91.954
 4827.00    1.21759   1.22850   93.081
 4828.00    1.22311   1.22964   93.632
 4829.00    1.22217   1.22838   93.577
 4830.00    1.21171   1.22657   94.496
 4831.00    1.21593   1.22527   94.617
 4832.00    1.21642   1.22475   93.013
 4833.00    1.22088   1.22513   91.793
 4834.00    1.21654   1.22616   91.498
 4835.00    1.21625   1.22719   91.674
 4836.00    1.21939   1.22777   92.127
 4837.00    1.22269   1.22777   93.435
 4838.00    1.21905   1.22688   95.135
 4839.00    1.20606   1.22500   95.104
 4840.00    1.20080   1.22294   94.891
 4841.00    1.20692   1.22145   94.400
 4842.00    1.20510   1.22028   93.682
 4843.00    1.20139   1.21907   92.733
 4844.00    1.20772   1.21819   91.245
 4845.00    1.21450   1.21768   90.826
 4846.00    1.21472   1.21622   92.801
 4847.00    1.20749   1.21244   94.158
 4848.00    1.19662   1.20724   94.077
 4849.00    1.18709   1.20299   92.686
 4850.00    1.18991   1.20038   92.529
 4851.00    1.19494   1.19756   93.097
 4852.00    1.18997   1.19161   93.904
 4853.00    1.17559   1.18009   96.831
 4854.00    1.15994   1.16282   99.574
 4855.00    1.14095   1.14273   99.193
 4856.00    1.12193   1.12191   98.144
 4857.00    1.10947   1.09560  101.038
 4858.00    1.08133   1.05297  110.111
 4859.00    1.00828   0.98860  123.351
 4860.00    0.90285   0.91632  128.869
 4861.00    0.82667   0.86750   -1.000
 4862.00    0.85073   0.86858  109.461
 4863.00    0.94796   0.91829  103.154
 4864.00    1.03794   0.98992   -1.000
 4865.00    1.09066   1.05529   97.578
 4866.00    1.11544   1.10254   96.745
 4867.00    1.13242   1.13350   96.353
 4868.00    1.14602   1.15223   97.258
 4869.00    1.15617   1.15974  100.112
 4870.00    1.14385   1.15748  102.541
 4871.00    1.12278   1.15142   -1.000
 4872.00    1.12579   1.14993   -1.000
 4873.00    1.14400   1.15716   96.850
 4874.00    1.16284   1.17000   96.143
 4875.00    1.17596   1.18224   95.628
 4876.00    1.16776   1.19072   -1.000
 4877.00    1.16130   1.19695   -1.000
 4878.00    1.16976   1.20409   -1.000
 4879.00    1.18594   1.21302   -1.000
 4880.00    1.19493   1.22089   -1.000
 4881.00    1.19176   1.22379   -1.000
 4882.00    1.18897   1.22121   -1.000
 4883.00    1.18322   1.21667   -1.000
 4884.00    1.18328   1.21386   -1.000
 4885.00    1.18511   1.21375   -1.000
 4886.00    1.18855   1.21498   -1.000
 4887.00    1.18930   1.21526   -1.000
 4888.00    1.18333   1.21236   -1.000
 4889.00    1.17055   1.20575   -1.000
 4890.00    1.15433   1.19844   -1.000
 4891.00    1.15048   1.19668   -1.000
 4892.00    1.16916   1.20528   -1.000
 4893.00    1.20504   1.22263   89.052
 4894.00    1.22934   1.24203   87.427
 4895.00    1.23802   1.25741   87.061
 4896.00    1.24268   1.26637   87.288
 4897.00    1.23900   1.26902   -1.000
 4898.00    1.22970   1.26628   -1.000
 4899.00    1.21827   1.25996   -1.000
 4900.00    1.21184   1.25305   -1.000
 4901.00    1.21907   1.24803   -1.000
 4902.00    1.21676   1.24536   -1.000
 4903.00    1.21675   1.24495   -1.000
 4904.00    1.21668   1.24783   -1.000
 4905.00    1.22660   1.25400   89.400
 4906.00    1.24178   1.26003   90.304
 4907.00    1.24248   1.26153   92.555
 4908.00    1.23283   1.25728   95.251
 4909.00    1.21726   1.24955   -1.000
 4910.00    1.20803   1.24217   -1.000
 4911.00    1.21247   1.23868   -1.000
 4912.00    1.22401   1.24061   92.001
 4913.00    1.23002   1.24649   90.808
 4914.00    1.23445   1.25296   90.033
 4915.00    1.24168   1.25609   90.541
 4916.00    1.23919   1.25203   93.852
 4917.00    1.23339   1.23847   99.094
 4918.00    1.20240   1.21713  103.765
 4919.00    1.16445   1.19457   -1.000
 4920.00    1.15952   1.17910  101.180
 4921.00    1.17048   1.17513   97.511
 4922.00    1.18264   1.18017   96.158
 4923.00    1.19213   1.18857   96.100
 4924.00    1.19252   1.19814   94.813
 4925.00    1.20088   1.21066   92.287
 4926.00    1.22208   1.22658   90.677
 4927.00    1.23921   1.24279   89.855
 4928.00    1.24713   1.25574   89.248
 4929.00    1.24992   1.26362   88.732
 4930.00    1.24647   1.26525   89.684
 4931.00    1.25358   1.25936   92.210
 4932.00    1.23162   1.24644   95.570
 4933.00    1.20884   1.23115   95.663
 4934.00    1.19602   1.22065   93.892
 4935.00    1.20826   1.21820   93.933
 4936.00    1.22535   1.21963   96.820
 4937.00    1.21968   1.21866   99.437
 4938.00    1.20035   1.21490   98.406
 4939.00    1.18352   1.21407   -1.000
 4940.00    1.20593   1.22129   91.934
 4941.00    1.22912   1.23569   90.293
 4942.00    1.24144   1.25147   89.510
 4943.00    1.25069   1.26287   89.616
 4944.00    1.25457   1.26787   90.272
 4945.00    1.24722   1.26829   90.433
 4946.00    1.24381   1.26767   89.575
 4947.00    1.24973   1.26870   88.515
 4948.00    1.25523   1.27170   88.274
 4949.00    1.25567   1.27505   87.912
 4950.00    1.25750   1.27689   88.405
 4951.00    1.25829   1.27652   89.027
 4952.00    1.25740   1.27416   90.078
 4953.00    1.25511   1.26945   91.231
 4954.00    1.25489   1.26016   93.767
 4955.00    1.23908   1.24359   98.699
 4956.00    1.20826   1.22141  102.531
 4957.00    1.18215   1.20274  100.185
 4958.00    1.17708   1.19867   94.351
 4959.00    1.20376   1.21181   91.222
 4960.00    1.23840   1.23364   90.620
 4961.00    1.25780   1.25279   91.088
 4962.00    1.25254   1.26343   91.835
 4963.00    1.24835   1.26566   92.955
 4964.00    1.25205   1.26183   94.952
 4965.00    1.23962   1.25479   96.133
 4966.00    1.23424   1.24791   96.110
 4967.00    1.23190   1.24403   95.809
 4968.00    1.23994   1.24404   95.078
 4969.00    1.24135   1.24729   94.049
 4970.00    1.23657   1.25264   93.036
 4971.00    1.24200   1.25870   91.924
 4972.00    1.24596   1.26406   91.075
 4973.00    1.25351   1.26754   90.744
 4974.00    1.25621   1.26853   91.418
 4975.00    1.25577   1.26716   92.401
 4976.00    1.25243   1.26405   93.675
 4977.00    1.25205   1.25985   95.206
 4978.00    1.24667   1.25472   96.372
 4979.00    1.24103   1.24753   97.788
 4980.00    1.22704   1.23637  101.084
 4981.00    1.20705   1.22129  104.289
 4982.00    1.19282   1.20630  104.136
 4983.00    1.17064   1.19743   -1.000
 4984.00    1.18086   1.19842   99.178
 4985.00    1.19579   1.20837   96.030
 4986.00    1.20898   1.22310   93.733
 4987.00    1.22652   1.23729   93.923
 4988.00    1.23729   1.24599   95.344
 4989.00    1.23719   1.24683   96.288
 4990.00    1.22601   1.24210   96.277
 4991.00    1.22306   1.23705   95.399
 4992.00    1.22469   1.23570   95.021
 4993.00    1.22080   1.23865   94.975
 4994.00    1.22575   1.24423   94.470
 4995.00    1.23245   1.25010   94.030
 4996.00    1.23920   1.25338   94.654
 4997.00    1.24526   1.25110   95.966
 4998.00    1.23890   1.24217   97.913
 4999.00    1.22824   1.22947   99.085
 5000.00    1.21662   1.21897   99.089
 5001.00    1.21349   1.21523   98.124
 5002.00    1.22154   1.21729   97.546
 5003.00    1.22044   1.21965   99.044
 5004.00    1.21612   1.21714  101.560
 5005.00    1.20265   1.20968  101.973
 5006.00    1.18268   1.20304   99.360
 5007.00    1.19193   1.20364   96.366
 5008.00    1.21522   1.21167   95.466
 5009.00    1.23309   1.22065   96.838
 5010.00    1.23647   1.22354   99.835
 5011.00    1.22025   1.21813  103.574
 5012.00    1.20106   1.20756  105.853
 5013.00    1.18543   1.19764  105.192
 5014.00    1.18204   1.19299  102.806
 5015.00    1.19169   1.19367  100.713
 5016.00    1.20499   1.19562  100.354
 5017.00    1.20612   1.19547  100.351
 5018.00    1.20549   1.19496   99.181
 5019.00    1.20567   1.19861   98.421
 5020.00    1.21108   1.20746   98.891
 5021.00    1.22384   1.21787   99.075
 5022.00    1.22448   1.22659   98.466
 5023.00    1.22065   1.23385   97.419
 5024.00    1.23087   1.24068   96.816
 5025.00    1.23634   1.24614   97.315
 5026.00    1.24040   1.24854   97.734
 5027.00    1.23964   1.24828   96.762
 5028.00    1.24175   1.24769   94.920
 5029.00    1.24452   1.24862   93.573
 5030.00    1.24798   1.25153   92.059
 5031.00    1.25132   1.25592   91.056
 5032.00    1.25090   1.26007   91.343
 5033.00    1.25318   1.26089   94.402
 5034.00    1.25557   1.25620   98.113
 5035.00    1.22797   1.24751   99.620
 5036.00    1.21272   1.23882   99.962
 5037.00    1.22125   1.23186  101.329
 5038.00    1.22267   1.22386  105.430
 5039.00    1.20494   1.21180  109.580
 5040.00    1.17630   1.19837  109.274
 5041.00    1.16105   1.19161   -1.000
 5042.00    1.17329   1.19790   97.365
 5043.00    1.20704   1.21610   93.536
 5044.00    1.23491   1.23893   91.561
 5045.00    1.30874   1.25846   -1.000
 5046.00    0.71918   1.26939   -1.000
 5047.00   -0.02069   1.26966    0.000
 5048.00    0.56992   1.26056   -1.000
 5049.00    1.27541   1.24645   96.534
 5050.00    1.21319   1.23321   98.239
 5051.00    1.22131   1.22635   95.954
 5052.00    1.23126   1.22931   93.545
 5053.00    1.25326   1.24129   91.897
 5054.00    1.26996   1.25688   91.074
 5055.00    1.27195   1.26981   90.819
 5056.00    1.27852   1.27748   91.002
 5057.00    1.27223   1.28122   91.163
 5058.00    1.26489   1.28333   91.094
 5059.00    1.26851   1.28508   90.479
 5060.00    1.26766   1.28637   90.604
 5061.00    1.27336   1.28595   91.932
 5062.00    1.27423   1.28188   94.702
 5063.00    1.26400   1.27327   98.015
 5064.00    1.24702   1.26223   98.955
 5065.00    1.23554   1.25306   97.654
 5066.00    1.24602   1.24871   96.213
 5067.00    1.24615   1.24862   95.944
 5068.00    1.24849   1.25046   95.473
 5069.00    1.25462   1.25266   94.897
 5070.00    1.26638   1.25437   95.722
 5071.00    1.27006   1.25472   96.390
 5072.00    1.26737   1.25349   95.146
 5073.00    1.25674   1.25176   94.447
 5074.00    1.26074   1.25073   94.347
 5075.00    1.26579   1.25017   94.319
 5076.00    1.26241   1.24822   95.387
 5077.00    1.25689   1.24259   98.879
 5078.00    1.23891   1.23293  103.497
 5079.00    1.21413   1.22257  104.386
 5080.00    1.21004   1.21654  102.051
 5081.00    1.22147   1.21714   99.909
 5082.00    1.22908   1.22260   98.571
 5083.00    1.23940   1.23045   96.691
 5084.00    1.24769   1.23970   95.086
 5085.00    1.26397   1.24935   94.472
 5086.00    1.27060   1.25739   94.346
 5087.00    1.27604   1.26255   93.845
 5088.00    1.28016   1.26566   93.165
 5089.00    1.27754   1.26836   92.659
 5090.00    1.27801   1.27148   92.150
 5091.00    1.27789   1.27513   91.072
 5092.00    1.28325   1.27909   90.345
 5093.00    1.28941   1.28235   91.293
 5094.00    1.29086   1.28289   93.255
 5095.00    1.28664   1.27884   95.287
 5096.00    1.27517   1.27013   97.597
 5097.00    1.26621   1.25907   99.543
 5098.00    1.25232   1.24972   99.642
 5099.00    1.24250   1.24618   97.054
 5100.00    1.25387   1.24985   94.320
 5101.00    1.26330   1.25803   93.646
 5102.00    1.27827   1.26584   94.290
 5103.00    1.28240   1.26965   95.564
 5104.00    1.27345   1.26839   96.769
 5105.00    1.26532   1.26240   97.955
 5106.00    1.25026   1.25311   99.115
 5107.00    1.23758   1.24352   98.877
 5108.00    1.23492   1.23730   98.218
 5109.00    1.23905   1.23663   97.471
 5110.00    1.23499   1.24157   96.047
 5111.00    1.24898   1.25070   94.880
 5112.00    1.27180   1.26165   93.740
 5113.00    1.28217   1.27169   92.925
 5114.00    1.28253   1.27921   92.415
 5115.00    1.29176   1.28441   91.427
 5116.00    1.29428   1.28827   90.728
 5117.00    1.30166   1.29097   91.094
 5118.00    1.30287   1.29161   92.341
 5119.00    1.30085   1.28913   93.749
 5120.00    1.29100   1.28310   95.353
 5121.00    1.29000   1.27391   97.879
 5122.00    1.26890   1.26294  100.732
 5123.00    1.25464   1.25268  101.235
 5124.00    1.24007   1.24575  100.286
 5125.00    1.24406   1.24292   99.810
 5126.00    1.24944   1.24244   99.250
 5127.00    1.24488   1.24213   99.415
 5128.00    1.24247   1.24177   99.242
 5129.00    1.25045   1.24294   97.866
 5130.00    1.26203   1.24691   96.228
 5131.00    1.26934   1.25311   95.479
 5132.00    1.27014   1.25981   94.564
 5133.00    1.26950   1.26545   93.769
 5134.00    1.27478   1.26897   93.668
 5135.00    1.27566   1.26913   95.487
 5136.00    1.26877   1.26484   97.799
 5137.00    1.25886   1.25661   99.235
 5138.00    1.24278   1.24742   99.241
 5139.00    1.23573   1.24115   98.398
 5140.00    1.24006   1.23958   99.264
 5141.00    1.23610   1.24140  100.795
 5142.00    1.23595   1.24454  100.031
 5143.00    1.24218   1.24841   98.372
 5144.00    1.25630   1.25292   98.174
 5145.00    1.26247   1.25682   99.115
 5146.00    1.26465   1.25867   99.233
 5147.00    1.26804   1.25856   97.982
 5148.00    1.26726   1.25725   97.574
 5149.00    1.26611   1.25451   98.909
 5150.00    1.25600   1.24976  100.677
 5151.00    1.24531   1.24398  101.207
 5152.00    1.23839   1.23995  100.544
 5153.00    1.24203   1.24020   98.510
 5154.00    1.25778   1.24562   95.974
 5155.00    1.27692   1.25543   93.575
 5156.00    1.28668   1.26734   91.922
 5157.00    1.30065   1.27826   91.337
 5158.00    1.30061   1.28568   91.375
 5159.00    1.29979   1.28871   91.711
 5160.00    1.29464   1.28779   92.283
 5161.00    1.29578   1.28383   93.378
 5162.00    1.29118   1.27708   94.984
 5163.00    1.28681   1.26559   98.992
 5164.00    1.27607   1.24466  107.566
 5165.00    1.24585   1.21079  118.733
 5166.00    1.18393   1.16831  125.790
 5167.00    1.13239   1.13094  122.384
 5168.00    1.12458   1.11228  115.470
 5169.00    1.15587   1.11324   -1.000
 5170.00    1.18310   1.12117   -1.000
 5171.00    1.17774   1.12412   -1.000
 5172.00    1.14847   1.12464  123.442
 5173.00    1.15118   1.13588  109.882
 5174.00    1.20133   1.16489   -1.000
 5175.00    1.25526   1.20381   -1.000
 5176.00    1.29319   1.23822   -1.000
 5177.00    1.30782   1.25964   -1.000
 5178.00    1.30549   1.26800   98.087
 5179.00    1.30164   1.26503  101.903
 5180.00    1.29795   1.24958   -1.000
 5181.00    1.28120   1.22030   -1.000
 5182.00    1.22938   1.18273   -1.000
 5183.00    1.16867   1.15178  123.314
 5184.00    1.15255   1.14344  109.329
 5185.00    1.19630   1.16130   -1.000
 5186.00    1.24527   1.19284   -1.000
 5187.00    1.26623   1.22084   -1.000
 5188.00    1.27316   1.23637   96.766
 5189.00    1.27231   1.24023   98.033
 5190.00    1.26450   1.23642  101.249
 5191.00    1.25176   1.22870  103.764
 5192.00    1.23706   1.22149  102.703
 5193.00    1.23020   1.21897  100.901
 5194.00    1.23919   1.22225   99.426
 5195.00    1.24600   1.22922   97.933
 5196.00    1.26421   1.23747   95.951
 5197.00    1.26735   1.24608   94.401
 5198.00    1.27278   1.25469   93.724
 5199.00    1.27925   1.26205   93.731
 5200.00    1.29165   1.26594   94.607
 5201.00    1.29464   1.26403   96.414
 5202.00    1.28446   1.25497   98.710
 5203.00    1.26296   1.23961  101.872
 5204.00    1.24798   1.22171  104.797
 5205.00    1.23431   1.20657  105.027
 5206.00    1.23101   1.19783  105.611
 5207.00    1.23214   1.19556  106.088
 5208.00    1.23857   1.19843   -1.000
 5209.00    1.23565   1.20668  100.686
 5210.00    1.25418   1.22130   96.599
 5211.00    1.28391   1.24034   -1.000
 5212.00    1.29865   1.25797   -1.000
 5213.00    1.31562   1.26805   -1.000
 5214.00    1.31154   1.26850   -1.000
 5215.00    1.29047   1.26293   95.753
 5216.00    1.27443   1.25828   94.744
 5217.00    1.27828   1.26011   92.669
 5218.00    1.29533   1.26898   91.357
 5219.00    1.30990   1.28093   90.720
 5220.00    1.32101   1.29105   90.494
 5221.00    1.32797   1.29600   91.885
 5222.00    1.32697   1.29383   94.874
 5223.00    1.32044   1.28286   -1.000
 5224.00    1.29862   1.26272  103.434
 5225.00    1.25651   1.23726  105.765
 5226.00    1.22119   1.21591  102.910
 5227.00    1.21162   1.20890   97.095
 5228.00    1.24113   1.21917   93.399
 5229.00    1.28232   1.23900   -1.000
 5230.00    1.30908   1.25581   -1.000
 5231.00    1.30836   1.26153   -1.000
 5232.00    1.28438   1.25731   95.572
 5233.00    1.27827   1.25093   95.077
 5234.00    1.27791   1.25039   92.770
 5235.00    1.29016   1.25848   90.649
 5236.00    1.30305   1.27188   89.778
 5237.00    1.32038   1.28476   89.782
 5238.00    1.32647   1.29326   90.052
 5239.00    1.32829   1.29711   89.831
 5240.00    1.32400   1.29809   89.332
 5241.00    1.32939   1.29804   89.487
 5242.00    1.32062   1.29808   89.283
 5243.00    1.32551   1.29837   89.306
 5244.00    1.33182   1.29778   -1.000
 5245.00    1.32525   1.29433   94.187
 5246.00    1.31212   1.28731   96.162
 5247.00    1.30352   1.27860   96.277
 5248.00    1.29546   1.27115   96.496
 5249.00    1.28780   1.26662   97.054
 5250.00    1.28456   1.26511   96.443
 5251.00    1.28331   1.26609   95.082
 5252.00    1.29273   1.26867   94.251
 5253.00    1.29901   1.27172   94.266
 5254.00    1.30043   1.27495   93.404
 5255.00    1.30512   1.27961   91.090
 5256.00    1.31500   1.28679   88.755
 5257.00    1.32668   1.29513   88.218
 5258.00    1.33305   1.30070   89.283
 5259.00    1.32984   1.29937   91.956
 5260.00    1.32362   1.28921   -1.000
 5261.00    1.30208   1.27158  100.500
 5262.00    1.27239   1.25029  103.770
 5263.00    1.25456   1.23006  105.655
 5264.00    1.23735   1.21489  105.633
 5265.00    1.22836   1.20667  103.654
 5266.00    1.23860   1.20363  102.170
 5267.00    1.25072   1.20049   -1.000
 5268.00    1.24259   1.19316   -1.000
 5269.00    1.21650   1.18467  106.005
 5270.00    1.21049   1.18407   99.542
 5271.00    1.23615   1.19701   -1.000
 5272.00    1.27470   1.21884   -1.000
 5273.00    1.28989   1.23912   -1.000
 5274.00    1.29137   1.25192   -1.000
 5275.00    1.29101   1.25977   92.634
 5276.00    1.30188   1.26845   89.508
 5277.00    1.31628   1.27987   88.139
 5278.00    1.34104   1.29039   -1.000
 5279.00    1.33923   1.29479   -1.000
 5280.00    1.32999   1.29088   -1.000
 5281.00    1.31613   1.28108   -1.000
 5282.00    1.29928   1.27097   95.257
 5283.00    1.29092   1.26647   93.080
 5284.00    1.29416   1.27119   90.162
 5285.00    1.32102   1.28413   -1.000
 5286.00    1.33408   1.30010   -1.000
 5287.00    1.35269   1.31336   -1.000
 5288.00    1.35067   1.32119   87.496
 5289.00    1.35019   1.32418   86.982
 5290.00    1.34940   1.32421   86.887
 5291.00    1.34902   1.32274   87.475
 5292.00    1.34492   1.32056   88.355
 5293.00    1.34801   1.31748   89.668
 5294.00    1.34514   1.31206   -1.000
 5295.00    1.33253   1.30288   95.815
 5296.00    1.31555   1.29073   97.999
 5297.00    1.29713   1.27942   96.989
 5298.00    1.29339   1.27350   94.474
 5299.00    1.30886   1.27469   -1.000
 5300.00    1.31788   1.28083   -1.000
 5301.00    1.31201   1.28870   90.990
 5302.00    1.32005   1.29662   88.522
 5303.00    1.32607   1.30433   87.089
 5304.00    1.33206   1.31102   87.060
 5305.00    1.34502   1.31503   87.972
 5306.00    1.34078   1.31588   88.593
 5307.00    1.33701   1.31526   87.887
 5308.00    1.34205   1.31567   86.980
 5309.00    1.34959   1.31801   -1.000
 5310.00    1.35470   1.32098   -1.000
 5311.00    1.35361   1.32258   87.187
 5312.00    1.35713   1.32151   -1.000
 5313.00    1.35589   1.31741   -1.000
 5314.00    1.34496   1.31064   -1.000
 5315.00    1.33706   1.30263   -1.000
 5316.00    1.32336   1.29638   89.753
 5317.00    1.32472   1.29489   89.069
 5318.00    1.33541   1.29866   -1.000
 5319.00    1.34016   1.30475   -1.000
 5320.00    1.33606   1.30872   89.880
 5321.00    1.34234   1.30723   -1.000
 5322.00    1.33631   1.29994   -1.000
 5323.00    1.32168   1.28926   -1.000
 5324.00    1.31091   1.27774   -1.000
 5325.00    1.30763   1.26504   -1.000
 5326.00    1.30043   1.24918   -1.000
 5327.00    1.26564   1.23174   -1.000
 5328.00    1.23688   1.22105  100.218
 5329.00    1.24907   1.22552   94.390
 5330.00    1.29217   1.24452   -1.000
 5331.00    1.32416   1.26833   -1.000
 5332.00    1.33036   1.28687   -1.000
 5333.00    1.33479   1.29676   -1.000
 5334.00    1.34295   1.30035   -1.000
 5335.00    1.34204   1.30049   -1.000
 5336.00    1.33692   1.29849   -1.000
 5337.00    1.33217   1.29452   -1.000
 5338.00    1.32702   1.28847   -1.000
 5339.00    1.31854   1.28135   -1.000
 5340.00    1.30586   1.27635   -1.000
 5341.00    1.30855   1.27696   -1.000
 5342.00    1.32263   1.28344   -1.000
 5343.00    1.33599   1.29188   -1.000
 5344.00    1.34309   1.29734   -1.000
 5345.00    1.33769   1.29782   -1.000
 5346.00    1.33151   1.29484   -1.000
 5347.00    1.33565   1.29098   -1.000
 5348.00    1.33342   1.28852   -1.000
 5349.00    1.32315   1.28928   -1.000
 5350.00    1.33065   1.29391   -1.000
 5351.00    1.34630   1.30142   -1.000
 5352.00    1.35056   1.30949   -1.000
 5353.00    1.35517   1.31636   -1.000
 5354.00    1.36008   1.32195   -1.000
 5355.00    1.35943   1.32684   -1.000
 5356.00    1.36889   1.33098   -1.000
 5357.00    1.37085   1.33367   -1.000
 5358.00    1.36497   1.33420   -1.000
 5359.00    1.36483   1.33225   -1.000
 5360.00    1.36124   1.32778   -1.000
 5361.00    1.34909   1.32120   89.585
 5362.00    1.33838   1.31349   90.152
 5363.00    1.33618   1.30612   -1.000
 5364.00    1.33130   1.30056   -1.000
 5365.00    1.32358   1.29753   90.815
 5366.00    1.32647   1.29625   -1.000
 5367.00    1.33596   1.29402   -1.000
 5368.00    1.33136   1.28768   -1.000
 5369.00    1.31757   1.27649   -1.000
 5370.00    1.30162   1.26435   -1.000
 5371.00    1.28843   1.25859   -1.000
 5372.00    1.29779   1.26426   -1.000
 5373.00    1.32863   1.27993   -1.000
 5374.00    1.35795   1.29854   -1.000
 5375.00    1.36865   1.31307   -1.000
 5376.00    1.36597   1.32113   -1.000
 5377.00    1.36790   1.32414   -1.000
 5378.00    1.37214   1.32403   -1.000
 5379.00    1.36157   1.32153   -1.000
 5380.00    1.34753   1.31701   -1.000
 5381.00    1.34249   1.31179   -1.000
 5382.00    1.34197   1.30793   -1.000
 5383.00    1.34449   1.30717   -1.000
 5384.00    1.35059   1.31002   -1.000
 5385.00    1.35821   1.31530   -1.000
 5386.00    1.35968   1.32056   -1.000
 5387.00    1.36444   1.32324   -1.000
 5388.00    1.36224   1.32189   -1.000
 5389.00    1.35525   1.31699   -1.000
 5390.00    1.35092   1.31028   -1.000
 5391.00    1.34893   1.30362   -1.000
 5392.00    1.34699   1.29810   -1.000
 5393.00    1.33922   1.29338   -1.000
 5394.00    1.33211   1.28786   -1.000
 5395.00    1.32624   1.28024   -1.000
 5396.00    1.31713   1.27225   -1.000
 5397.00    1.30830   1.26839   -1.000
 5398.00    1.31717   1.27211   -1.000
 5399.00    1.33696   1.28212   -1.000
 5400.00    1.34916   1.29276   -1.000
 5401.00    1.35405   1.29797   -1.000
 5402.00    1.34593   1.29443   -1.000
 5403.00    1.32592   1.28282   -1.000
 5404.00    1.30813   1.26783   -1.000
 5405.00    1.29112   1.25678   -1.000
 5406.00    1.29638   1.25466   -1.000
 5407.00    1.32224   1.26035   -1.000
 5408.00    1.33069   1.26817   -1.000
 5409.00    1.32211   1.27406   -1.000
 5410.00    1.32063   1.27904   -1.000
 5411.00    1.33041   1.28564   -1.000
 5412.00    1.34034   1.29370   -1.000
 5413.00    1.34327   1.30052   -1.000
 5414.00    1.34451   1.30456   -1.000
 5415.00    1.34433   1.30723   -1.000
 5416.00    1.34510   1.31040   -1.000
 5417.00    1.34658   1.31407   -1.000
 5418.00    1.34866   1.31705   -1.000
 5419.00    1.34779   1.31839   -1.000
 5420.00    1.35013   1.31793   -1.000
 5421.00    1.35823   1.31583   -1.000
 5422.00    1.35484   1.31214   -1.000
 5423.00    1.34442   1.30809   -1.000
 5424.00    1.33493   1.30612   -1.000
 5425.00    1.33380   1.30757   88.632
 5426.00    1.34888   1.31044   -1.000
 5427.00    1.35690   1.30998   -1.000
 5428.00    1.34148   1.30384   -1.000
 5429.00    1.31582   1.29516   94.357
 5430.00    1.30790   1.28912   92.732
 5431.00    1.32313   1.28752   -1.000
 5432.00    1.33872   1.28707   -1.000
 5433.00    1.33233   1.28477   -1.000
 5434.00    1.31600   1.28244   -1.000
 5435.00    1.31203   1.28453   92.519
 5436.00    1.32404   1.29345   -1.000
 5437.00    1.34806   1.30680   -1.000
 5438.00    1.36699   1.31995   -1.000
 5439.00    1.37348   1.32985   -1.000
 5440.00    1.37381   1.33583   -1.000
 5441.00    1.37568   1.33842   -1.000
 5442.00    1.37282   1.33714   -1.000
 5443.00    1.36523   1.33029   -1.000
 5444.00    1.34914   1.31675   -1.000
 5445.00    1.32340   1.29900   96.663
 5446.00    1.29716   1.28377   95.296
 5447.00    1.29515   1.27808   92.095
 5448.00    1.31723   1.28419   -1.000
 5449.00    1.34562   1.29752   -1.000
 5450.00    1.36160   1.31043   -1.000
 5451.00    1.36732   1.31695   -1.000
 5452.00    1.35919   1.31486   -1.000
 5453.00    1.35062   1.30514   -1.000
 5454.00    1.33589   1.29213   -1.000
 5455.00    1.30866   1.28274   94.862
 5456.00    1.30510   1.28309   91.516
 5457.00    1.33621   1.29372   -1.000
 5458.00    1.36118   1.30871   -1.000
 5459.00    1.37139   1.32040   -1.000
 5460.00    1.37547   1.32443   -1.000
 5461.00    1.36245   1.32160   -1.000
 5462.00    1.35313   1.31590   -1.000
 5463.00    1.34820   1.31171   -1.000
 5464.00    1.35567   1.31147   -1.000
 5465.00    1.36453   1.31491   -1.000
 5466.00    1.36694   1.31990   -1.000
 5467.00    1.36814   1.32439   -1.000
 5468.00    1.36859   1.32752   -1.000
 5469.00    1.37326   1.32892   -1.000
 5470.00    1.37570   1.32828   -1.000
 5471.00    1.36783   1.32557   -1.000
 5472.00    1.36397   1.32090   -1.000
 5473.00    1.36163   1.31416   -1.000
 5474.00    1.35408   1.30510   -1.000
 5475.00    1.33877   1.29471   -1.000
 5476.00    1.32255   1.28677   -1.000
 5477.00    1.32257   1.28565   -1.000
 5478.00    1.33560   1.29185   -1.000
 5479.00    1.35076   1.30134   -1.000
 5480.00    1.36127   1.30879   -1.000
 5481.00    1.36156   1.31234   -1.000
 5482.00    1.35337   1.31449   -1.000
 5483.00    1.35443   1.31790   -1.000
 5484.00    1.36234   1.32264   -1.000
 5485.00    1.35884   1.32650   -1.000
 5486.00    1.36082   1.32750   -1.000
 5487.00    1.36246   1.32577   -1.000
 5488.00    1.36172   1.32318   -1.000
 5489.00    1.36276   1.32177   -1.000
 5490.00    1.36311   1.32236   -1.000
 5491.00    1.36650   1.32432   -1.000
 5492.00    1.37073   1.32626   -1.000
 5493.00    1.37025   1.32680   -1.000
 5494.00    1.36707   1.32506   -1.000
 5495.00    1.36867   1.32089   -1.000
 5496.00    1.36412   1.31550   -1.000
 5497.00    1.35048   1.31123   -1.000
 5498.00    1.34812   1.30938   -1.000
 5499.00    1.35299   1.30896   -1.000
 5500.00    1.35295   1.30792   -1.000
 5501.00    1.34761   1.30575   -1.000
 5502.00    1.34787   1.30430   -1.000
 5503.00    1.35553   1.30436   -1.000
 5504.00    1.35753   1.30428   -1.000
 5505.00    1.35135   1.30243   -1.000
 5506.00    1.33820   1.29984   -1.000
 5507.00    1.33866   1.29985   -1.000
 5508.00    1.34929   1.30373   -1.000
 5509.00    1.36054   1.30889   -1.000
 5510.00    1.36757   1.31162   -1.000
 5511.00    1.36471   1.31025   -1.000
 5512.00    1.35197   1.30654   -1.000
 5513.00    1.34502   1.30370   -1.000
 5514.00    1.34955   1.30398   -1.000
 5515.00    1.35934   1.30798   -1.000
 5516.00    1.37064   1.31482   -1.000
 5517.00    1.38100   1.32268   -1.000
 5518.00    1.38299   1.32958   -1.000
 5519.00    1.38608   1.33413   -1.000
 5520.00    1.38648   1.33614   -1.000
 5521.00    1.38207   1.33657   -1.000
 5522.00    1.37727   1.33606   -1.000
 5523.00    1.37191   1.33413   -1.000
 5524.00    1.37151   1.32894   -1.000
 5525.00    1.36688   1.31920   -1.000
 5526.00    1.34603   1.30638   -1.000
 5527.00    1.31834   1.29495   96.001
 5528.00    1.31691   1.29050   93.624
 5529.00    1.33495   1.29520   -1.000
 5530.00    1.35733   1.30591   -1.000
 5531.00    1.37259   1.31625   -1.000
 5532.00    1.36996   1.32133   -1.000
 5533.00    1.36247   1.32089   -1.000
 5534.00    1.36112   1.31858   -1.000
 5535.00    1.35538   1.31827   -1.000
 5536.00    1.36435   1.32120   -1.000
 5537.00    1.37097   1.32629   -1.000
 5538.00    1.37119   1.33146   -1.000
 5539.00    1.38055   1.33544   -1.000
 5540.00    1.38345   1.33775   -1.000
 5541.00    1.38113   1.33814   -1.000
 5542.00    1.38196   1.33677   -1.000
 5543.00    1.36961   1.33460   -1.000
 5544.00    1.36915   1.33293   -1.000
 5545.00    1.37498   1.33271   -1.000
 5546.00    1.38150   1.33418   -1.000
 5547.00    1.38681   1.33714   -1.000
 5548.00    1.38735   1.34086   -1.000
 5549.00    1.39150   1.34419   -1.000
 5550.00    1.39014   1.34591   -1.000
 5551.00    1.38691   1.34559   -1.000
 5552.00    1.38471   1.34388   -1.000
 5553.00    1.38012   1.34180   -1.000
 5554.00    1.37962   1.34023   -1.000
 5555.00    1.37908   1.33943   -1.000
 5556.00    1.38389   1.33950   -1.000
 5557.00    1.38054   1.34007   -1.000
 5558.00    1.38104   1.34086   -1.000
 5559.00    1.38917   1.34138   -1.000
 5560.00    1.38945   1.34102   -1.000
 5561.00    1.38363   1.33946   -1.000
 5562.00    1.37877   1.33703   -1.000
 5563.00    1.38148   1.33454   -1.000
 5564.00    1.37845   1.33254   -1.000
 5565.00    1.37123   1.33078   -1.000
 5566.00    1.36814   1.32885   -1.000
 5567.00    1.36526   1.32651   -1.000
 5568.00    1.36395   1.32410   -1.000
 5569.00    1.35972   1.32205   -1.000
 5570.00    1.35746   1.31997   -1.000
 5571.00    1.34772   1.31792   -1.000
 5572.00    1.30774   1.31667   92.142
 5573.00    1.17751   1.31718   -1.000
 5574.00    0.79789   1.32005   -1.000
 5575.00    0.58567   1.32431   -1.000
 5576.00    1.05687   1.32877   -1.000
 5577.00    1.68987   1.33280   -1.000
 5578.00    2.21492   1.33613   -1.000
 5579.00    1.88860   1.33831   -1.000
 5580.00    1.54752   1.33899   -1.000
 5581.00    1.40485   1.33843   -1.000
 5582.00    1.38433   1.33709   -1.000
 5583.00    1.38080   1.33457   -1.000
 5584.00    1.37945   1.32897   -1.000
 5585.00    1.36668   1.31896   -1.000
 5586.00    1.34564   1.30592   -1.000
 5587.00    1.32878   1.29406   -1.000
 5588.00    1.31969   1.28785   -1.000
 5589.00    1.32099   1.28907   -1.000
 5590.00    1.33588   1.29596   -1.000
 5591.00    1.35418   1.30440   -1.000
 5592.00    1.36220   1.31105   -1.000
 5593.00    1.35286   1.31495   -1.000
 5594.00    1.35165   1.31771   -1.000
 5595.00    1.35902   1.32027   -1.000
 5596.00    1.36808   1.32149   -1.000
 5597.00    1.36672   1.32002   -1.000
 5598.00    1.35667   1.31590   -1.000
 5599.00    1.35824   1.31071   -1.000
 5600.00    1.35686   1.30622   -1.000
 5601.00    1.35436   1.30401   -1.000
 5602.00    1.34901   1.30589   -1.000
 5603.00    1.34506   1.31316   -1.000
 5604.00    1.36095   1.32456   -1.000
 5605.00    1.38540   1.33665   -1.000
 5606.00    1.39659   1.34630   -1.000
 5607.00    1.40026   1.35222   -1.000
 5608.00    1.39881   1.35522   -1.000
 5609.00    1.39766   1.35663   -1.000
 5610.00    1.40192   1.35682   -1.000
 5611.00    1.40204   1.35473   -1.000
 5612.00    1.39686   1.34855   -1.000
 5613.00    1.38528   1.33758   -1.000
 5614.00    1.36613   1.32471   -1.000
 5615.00    1.34524   1.31562   -1.000
 5616.00    1.34066   1.31435   93.027
 5617.00    1.36154   1.32061   -1.000
 5618.00    1.38259   1.32963   -1.000
 5619.00    1.39088   1.33704   -1.000
 5620.00    1.39286   1.34115   -1.000
 5621.00    1.39303   1.34228   -1.000
 5622.00    1.39278   1.34087   -1.000
 5623.00    1.38089   1.33771   -1.000
 5624.00    1.36743   1.33443   -1.000
 5625.00    1.37409   1.33327   -1.000
 5626.00    1.38056   1.33508   -1.000
 5627.00    1.38864   1.33893   -1.000
 5628.00    1.39542   1.34317   -1.000
 5629.00    1.40054   1.34648   -1.000
 5630.00    1.40021   1.34863   -1.000
 5631.00    1.39837   1.34960   -1.000
 5632.00    1.39631   1.34952   -1.000
 5633.00    1.39836   1.34865   -1.000
 5634.00    1.39481   1.34698   -1.000
 5635.00    1.39387   1.34455   -1.000
 5636.00    1.39607   1.34167   -1.000
 5637.00    1.39269   1.33893   -1.000
 5638.00    1.38840   1.33679   -1.000
 5639.00    1.38327   1.33516   -1.000
 5640.00    1.38013   1.33392   -1.000
 5641.00    1.38271   1.33344   -1.000
 5642.00    1.38213   1.33421   -1.000
 5643.00    1.38708   1.33606   -1.000
 5644.00    1.39476   1.33822   -1.000
 5645.00    1.39834   1.33990   -1.000
 5646.00    1.40200   1.34089   -1.000
 5647.00    1.40636   1.34152   -1.000
 5648.00    1.40544   1.34199   -1.000
 5649.00    1.39694   1.34261   -1.000
 5650.00    1.39614   1.34356   -1.000
 5651.00    1.39616   1.34467   -1.000
 5652.00    1.39487   1.34542   -1.000
 5653.00    1.39432   1.34479   -1.000
 5654.00    1.39467   1.34157   -1.000
 5655.00    1.39065   1.33457   -1.000
 5656.00    1.37691   1.32408   -1.000
 5657.00    1.35701   1.31329   -1.000
 5658.00    1.34274   1.30656   -1.000
 5659.00    1.35128   1.30651   -1.000
 5660.00    1.36784   1.31151   -1.000
 5661.00    1.37470   1.31783   -1.000
 5662.00    1.37935   1.32397   -1.000
 5663.00    1.38102   1.32991   -1.000
 5664.00    1.38635   1.33524   -1.000
 5665.00    1.39368   1.33811   -1.000
 5666.00    1.39093   1.33716   -1.000
 5667.00    1.38446   1.33399   -1.000
 5668.00    1.38503   1.33164   -1.000
 5669.00    1.38775   1.33200   -1.000
 5670.00    1.39072   1.33498   -1.000
 5671.00    1.39349   1.33920   -1.000
 5672.00    1.39904   1.34331   -1.000
 5673.00    1.40248   1.34644   -1.000
 5674.00    1.40123   1.34845   -1.000
 5675.00    1.40235   1.34967   -1.000
 5676.00    1.40292   1.35044   -1.000
 5677.00    1.40036   1.35071   -1.000
 5678.00    1.39944   1.34995   -1.000
 5679.00    1.39749   1.34758   -1.000
 5680.00    1.39767   1.34339   -1.000
 5681.00    1.40214   1.33787   -1.000
 5682.00    1.39396   1.33233   -1.000
 5683.00    1.38494   1.32868   -1.000
 5684.00    1.37743   1.32782   -1.000
 5685.00    1.38352   1.32905   -1.000
 5686.00    1.38015   1.33060   -1.000
 5687.00    1.38148   1.33131   -1.000
 5688.00    1.38414   1.33165   -1.000
 5689.00    1.38500   1.33302   -1.000
 5690.00    1.39295   1.33621   -1.000
 5691.00    1.39765   1.34073   -1.000
 5692.00    1.40217   1.34521   -1.000
 5693.00    1.40566   1.34852   -1.000
 5694.00    1.40314   1.35030   -1.000
 5695.00    1.40498   1.35071   -1.000
 5696.00    1.40293   1.34991   -1.000
 5697.00    1.40050   1.34779   -1.000
 5698.00    1.39412   1.34443   -1.000
 5699.00    1.38605   1.34036   -1.000
 5700.00    1.38291   1.33653   -1.000
 5701.00    1.37432   1.33420   -1.000
 5702.00    1.36844   1.33409   -1.000
 5703.00    1.37072   1.33551   -1.000
 5704.00    1.37570   1.33675   -1.000
 5705.00    1.37683   1.33581   -1.000
 5706.00    1.37280   1.33167   -1.000
 5707.00    1.36816   1.32501   -1.000
 5708.00    1.35861   1.31752   -1.000
 5709.00    1.34621   1.31180   -1.000
 5710.00    1.34135   1.31005   -1.000
 5711.00    1.34862   1.31321   -1.000
 5712.00    1.36471   1.32025   -1.000
 5713.00    1.38108   1.32875   -1.000
 5714.00    1.39375   1.33630   -1.000
 5715.00    1.40090   1.34197   -1.000
 5716.00    1.39856   1.34592   -1.000
 5717.00    1.40085   1.34902   -1.000
 5718.00    1.40049   1.35177   -1.000
 5719.00    1.39794   1.35426   -1.000
 5720.00    1.40924   1.35641   -1.000
 5721.00    1.40378   1.35799   -1.000
 5722.00    1.40080   1.35894   -1.000
 5723.00    1.40636   1.35895   -1.000
 5724.00    1.40718   1.35765   -1.000
 5725.00    1.40276   1.35478   -1.000
 5726.00    1.39511   1.35119   -1.000
 5727.00    1.40038   1.34825   -1.000
 5728.00    1.40388   1.34710   -1.000
 5729.00    1.40318   1.34762   -1.000
 5730.00    1.40884   1.34899   -1.000
 5731.00    1.40607   1.35066   -1.000
 5732.00    1.40134   1.35269   -1.000
 5733.00    1.41038   1.35519   -1.000
 5734.00    1.41435   1.35756   -1.000
 5735.00    1.41142   1.35932   -1.000
 5736.00    1.40863   1.36020   -1.000
 5737.00    1.40173   1.36033   -1.000
 5738.00    1.40901   1.36029   -1.000
 5739.00    1.40818   1.36008   -1.000
 5740.00    1.40388   1.35986   -1.000
 5741.00    1.40248   1.35960   -1.000
 5742.00    1.39756   1.35953   -1.000
 5743.00    1.39743   1.35991   -1.000
 5744.00    1.40144   1.36069   -1.000
 5745.00    1.40865   1.36118   -1.000
 5746.00    1.41138   1.36078   -1.000
 5747.00    1.40501   1.35977   -1.000
 5748.00    1.39785   1.35912   -1.000
 5749.00    1.39813   1.35893   -1.000
 5750.00    1.40041   1.35839   -1.000
 5751.00    1.40068   1.35621   -1.000
 5752.00    1.39652   1.35270   -1.000
 5753.00    1.38857   1.34995   -1.000
 5754.00    1.38282   1.35006   -1.000
 5755.00    1.38937   1.35369   -1.000
 5756.00    1.40395   1.35921   -1.000
 5757.00    1.40811   1.36422   -1.000
 5758.00    1.40932   1.36646   -1.000
 5759.00    1.41153   1.36524   -1.000
 5760.00    1.40672   1.36129   -1.000
 5761.00    1.39808   1.35684   -1.000
 5762.00    1.38976   1.35465   -1.000
 5763.00    1.39566   1.35630   -1.000
 5764.00    1.40235   1.36091   -1.000
 5765.00    1.40825   1.36594   -1.000
 5766.00    1.41047   1.36934   -1.000
 5767.00    1.40401   1.37044   -1.000
 5768.00    1.40513   1.37028   -1.000
 5769.00    1.40566   1.36944   -1.000
 5770.00    1.40046   1.36827   -1.000
 5771.00    1.39594   1.36669   -1.000
 5772.00    1.39909   1.36469   -1.000
 5773.00    1.39218   1.36231   -1.000
 5774.00    1.38547   1.35986   89.563
 5775.00    1.38354   1.35788   89.165
 5776.00    1.37233   1.35637   89.206
 5777.00    1.35671   1.35482   89.742
 5778.00    1.33712   1.35237   91.323
 5779.00    1.32740   1.34862   93.279
 5780.00    1.33552   1.34427   94.081
 5781.00    1.35362   1.34044   93.731
 5782.00    1.37195   1.33824   -1.000
 5783.00    1.39162   1.33793   -1.000
 5784.00    1.39386   1.33920   -1.000
 5785.00    1.38950   1.34143   -1.000
 5786.00    1.39534   1.34423   -1.000
 5787.00    1.39722   1.34724   -1.000
 5788.00    1.40199   1.35013   -1.000
 5789.00    1.40232   1.35230   -1.000
 5790.00    1.40335   1.35389   -1.000
 5791.00    1.40414   1.35559   -1.000
 5792.00    1.39992   1.35824   -1.000
 5793.00    1.39792   1.36198   -1.000
 5794.00    1.39830   1.36559   -1.000
 5795.00    1.39063   1.36766   88.974
 5796.00    1.39428   1.36760   -1.000
 5797.00    1.40282   1.36657   -1.000
 5798.00    1.40676   1.36636   -1.000
 5799.00    1.40957   1.36793   -1.000
 5800.00    1.41182   1.37069   -1.000
 5801.00    1.41394   1.37301   -1.000
 5802.00    1.41387   1.37373   -1.000
 5803.00    1.41440   1.37291   -1.000
 5804.00    1.41144   1.37166   -1.000
 5805.00    1.40913   1.37102   -1.000
 5806.00    1.41297   1.37165   -1.000
 5807.00    1.41058   1.37297   -1.000
 5808.00    1.40915   1.37433   -1.000
 5809.00    1.41526   1.37532   -1.000
 5810.00    1.41932   1.37591   -1.000
 5811.00    1.42132   1.37618   -1.000
 5812.00    1.42380   1.37581   -1.000
 5813.00    1.42437   1.37448   -1.000
 5814.00    1.42679   1.37248   -1.000
 5815.00    1.42833   1.37070   -1.000
 5816.00    1.42381   1.37037   -1.000
 5817.00    1.42617   1.37169   -1.000
 5818.00    1.42766   1.37402   -1.000
 5819.00    1.42946   1.37627   -1.000
 5820.00    1.42822   1.37785   -1.000
 5821.00    1.43240   1.37881   -1.000
 5822.00    1.43646   1.37922   -1.000
 5823.00    1.43128   1.37925   -1.000
 5824.00    1.43254   1.37905   -1.000
 5825.00    1.43377   1.37923   -1.000
 5826.00    1.43673   1.38003   -1.000
 5827.00    1.43432   1.38146   -1.000
 5828.00    1.43115   1.38304   -1.000
 5829.00    1.43215   1.38404   -1.000
 5830.00    1.43706   1.38417   -1.000
 5831.00    1.43445   1.38338   -1.000
 5832.00    1.43620   1.38198   -1.000
 5833.00    1.43052   1.38041   -1.000
 5834.00    1.42959   1.37905   -1.000
 5835.00    1.43668   1.37854   -1.000
 5836.00    1.43422   1.37895   -1.000
 5837.00    1.43283   1.38024   -1.000
 5838.00    1.43225   1.38188   -1.000
 5839.00    1.42438   1.38337   -1.000
 5840.00    1.42506   1.38426   -1.000
 5841.00    1.42655   1.38416   -1.000
 5842.00    1.42646   1.38288   -1.000
 5843.00    1.42933   1.38077   -1.000
 5844.00    1.43216   1.37834   -1.000
 5845.00    1.42865   1.37617   -1.000
 5846.00    1.42919   1.37448   -1.000
 5847.00    1.42284   1.37322   -1.000
 5848.00    1.42612   1.37194   -1.000
 5849.00    1.43182   1.37019   -1.000
 5850.00    1.43190   1.36720   -1.000
 5851.00    1.42880   1.36271   -1.000
 5852.00    1.42019   1.35752   -1.000
 5853.00    1.41145   1.35285   -1.000
 5854.00    1.40811   1.34919   -1.000
 5855.00    1.40925   1.34575   -1.000
 5856.00    1.40624   1.34195   -1.000
 5857.00    1.40266   1.33904   -1.000
 5858.00    1.40231   1.33903   -1.000
 5859.00    1.40963   1.34281   -1.000
 5860.00    1.41594   1.34856   -1.000
 5861.00    1.41795   1.35407   -1.000
 5862.00    1.41883   1.35772   -1.000
 5863.00    1.41672   1.35938   -1.000
 5864.00    1.42064   1.35927   -1.000
 5865.00    1.42057   1.35809   -1.000
 5866.00    1.41637   1.35710   -1.000
 5867.00    1.41994   1.35775   -1.000
 5868.00    1.42528   1.36032   -1.000
 5869.00    1.42981   1.36389   -1.000
 5870.00    1.43809   1.36668   -1.000
 5871.00    1.43407   1.36761   -1.000
 5872.00    1.42695   1.36671   -1.000
 5873.00    1.43161   1.36466   -1.000
 5874.00    1.43604   1.36226   -1.000
 5875.00    1.43437   1.36005   -1.000
 5876.00    1.42559   1.35803   -1.000
 5877.00    1.42516   1.35582   -1.000
 5878.00    1.42606   1.35315   -1.000
 5879.00    1.42743   1.35017   -1.000
 5880.00    1.42120   1.34731   -1.000
 5881.00    1.41422   1.34476   -1.000
 5882.00    1.41550   1.34204   -1.000
 5883.00    1.41265   1.33847   -1.000
 5884.00    1.39626   1.33316   -1.000
 5885.00    1.36422   1.32430   -1.000
 5886.00    1.29932   1.30878   96.901
 5887.00    1.20655   1.28457   -1.000
 5888.00    1.14739   1.25478   -1.000
 5889.00    1.18327   1.22990   -1.000
 5890.00    1.27875   1.21949   -1.000
 5891.00    1.34936   1.22564   -1.000
 5892.00    1.32155   1.23837   -1.000
 5893.00    1.25799   1.24576  102.602
 5894.00    1.21601   1.24324   -1.000
 5895.00    1.24415   1.23719  103.484
 5896.00    1.30248   1.23821   -1.000
 5897.00    1.35515   1.25013   -1.000
 5898.00    1.38233   1.27000   -1.000
 5899.00    1.39267   1.29052   -1.000
 5900.00    1.40009   1.30744   -1.000
 5901.00    1.40442   1.31998   -1.000
 5902.00    1.41388   1.32886   -1.000
 5903.00    1.41583   1.33476   -1.000
 5904.00    1.41522   1.33847   -1.000
 5905.00    1.41502   1.34078   -1.000
 5906.00    1.41307   1.34235   -1.000
 5907.00    1.41582   1.34372   -1.000
 5908.00    1.41383   1.34497   -1.000
 5909.00    1.41078   1.34590   -1.000
 5910.00    1.41058   1.34588   -1.000
 5911.00    1.41457   1.34428   -1.000
 5912.00    1.41270   1.34085   -1.000
 5913.00    1.40213   1.33638   -1.000
 5914.00    1.39578   1.33223   -1.000
 5915.00    1.39924   1.32993   -1.000
 5916.00    1.40381   1.32993   -1.000
 5917.00    1.39915   1.33200   -1.000
 5918.00    1.39567   1.33500   -1.000
 5919.00    1.40080   1.33803   -1.000
 5920.00    1.40335   1.34039   -1.000
 5921.00    1.40037   1.34197   -1.000
 5922.00    1.39774   1.34312   -1.000
 5923.00    1.40240   1.34458   -1.000
 5924.00    1.41307   1.34661   -1.000
 5925.00    1.42097   1.34880   -1.000
 5926.00    1.42260   1.35029   -1.000
 5927.00    1.41948   1.35010   -1.000
 5928.00    1.41272   1.34855   -1.000
 5929.00    1.40287   1.34675   -1.000
 5930.00    1.40314   1.34606   -1.000
 5931.00    1.40806   1.34664   -1.000
 5932.00    1.41360   1.34771   -1.000
 5933.00    1.41292   1.34803   -1.000
 5934.00    1.41135   1.34763   -1.000
 5935.00    1.41529   1.34727   -1.000
 5936.00    1.41246   1.34759   -1.000
 5937.00    1.41485   1.34810   -1.000
 5938.00    1.41251   1.34778   -1.000
 5939.00    1.40221   1.34601   -1.000
 5940.00    1.39758   1.34362   -1.000
 5941.00    1.39733   1.34174   -1.000
 5942.00    1.39567   1.34140   -1.000
 5943.00    1.40050   1.34261   -1.000
 5944.00    1.40928   1.34444   -1.000
 5945.00    1.40698   1.34589   -1.000
 5946.00    1.40135   1.34612   -1.000
 5947.00    1.39727   1.34543   -1.000
 5948.00    1.39663   1.34493   -1.000
 5949.00    1.39549   1.34538   -1.000
 5950.00    1.39994   1.34648   -1.000
 5951.00    1.40849   1.34759   -1.000
 5952.00    1.40948   1.34784   -1.000
 5953.00    1.40344   1.34738   -1.000
 5954.00    1.40106   1.34619   -1.000
 5955.00    1.39963   1.34478   -1.000
 5956.00    1.40115   1.34386   -1.000
 5957.00    1.39594   1.34441   -1.000
 5958.00    1.39942   1.34683   -1.000
 5959.00    1.41050   1.35039   -1.000
 5960.00    1.41263   1.35404   -1.000
 5961.00    1.41852   1.35655   -1.000
 5962.00    1.41897   1.35750   -1.000
 5963.00    1.41675   1.35685   -1.000
 5964.00    1.41189   1.35517   -1.000
 5965.00    1.40360   1.35336   -1.000
 5966.00    1.39538   1.35238   -1.000
 5967.00    1.39550   1.35260   -1.000
 5968.00    1.40072   1.35384   -1.000
 5969.00    1.40487   1.35545   -1.000
 5970.00    1.40618   1.35682   -1.000
 5971.00    1.41156   1.35756   -1.000
 5972.00    1.41098   1.35747   -1.000
 5973.00    1.40958   1.35656   -1.000
 5974.00    1.40496   1.35475   -1.000
 5975.00    1.39664   1.35245   -1.000
 5976.00    1.39316   1.35038   -1.000
 5977.00    1.39836   1.34935   -1.000
 5978.00    1.40551   1.35012   -1.000
 5979.00    1.40533   1.35180   -1.000
 5980.00    1.40548   1.35335   -1.000
 5981.00    1.40456   1.35330   -1.000
 5982.00    1.39800   1.35149   -1.000
 5983.00    1.39789   1.34894   -1.000
 5984.00    1.39665   1.34724   -1.000
 5985.00    1.39088   1.34750   -1.000
 5986.00    1.39217   1.34942   -1.000
 5987.00    1.39510   1.35206   -1.000
 5988.00    1.39803   1.35425   -1.000
 5989.00    1.40072   1.35557   -1.000
 5990.00    1.40436   1.35644   -1.000
 5991.00    1.40077   1.35780   -1.000
 5992.00    1.39516   1.36028   -1.000
 5993.00    1.39982   1.36333   -1.000
 5994.00    1.40882   1.36561   -1.000
 5995.00    1.40595   1.36605   -1.000
 5996.00    1.40419   1.36494   -1.000
 5997.00    1.40638   1.36338   -1.000
 5998.00    1.40315   1.36238   -1.000
 5999.00    1.40288   1.36180   -1.000
 6000.00    1.40461   1.36117   -1.000
 6001.00    1.39865   1.36008   -1.000
 6002.00    1.39349   1.35868   -1.000
 6003.00    1.39851   1.35738   -1.000
 6004.00    1.39550   1.35586   -1.000
 6005.00    1.39160   1.35379   -1.000
 6006.00    1.39115   1.35127   -1.000
 6007.00    1.38412   1.34938   -1.000
 6008.00    1.38304   1.34945   -1.000
 6009.00    1.38629   1.35168   -1.000
 6010.00    1.39335   1.35460   -1.000
 6011.00    1.39896   1.35690   -1.000
 6012.00    1.40057   1.35788   -1.000
 6013.00    1.39974   1.35822   -1.000
 6014.00    1.39394   1.35849   -1.000
 6015.00    1.39485   1.35843   -1.000
 6016.00    1.39653   1.35787   -1.000
 6017.00    1.39728   1.35659   -1.000
 6018.00    1.39795   1.35492   -1.000
 6019.00    1.39415   1.35330   -1.000
 6020.00    1.38965   1.35208   -1.000
 6021.00    1.38655   1.35161   -1.000
 6022.00    1.38404   1.35207   -1.000
 6023.00    1.38882   1.35361   -1.000
 6024.00    1.38402   1.35613   -1.000
 6025.00    1.38242   1.35925   91.169
 6026.00    1.39258   1.36232   -1.000
 6027.00    1.39641   1.36486   -1.000
 6028.00    1.39821   1.36674   -1.000
 6029.00    1.39908   1.36807   -1.000
 6030.00    1.40139   1.36916   -1.000
 6031.00    1.39639   1.37017   -1.000
 6032.00    1.39754   1.37139   -1.000
 6033.00    1.39389   1.37281   89.664
 6034.00    1.40133   1.37409   -1.000
 6035.00    1.39841   1.37470   -1.000
 6036.00    1.39307   1.37398   89.747
 6037.00    1.39766   1.37195   -1.000
 6038.00    1.40042   1.36912   -1.000
 6039.00    1.40126   1.36638   -1.000
 6040.00    1.40186   1.36452   -1.000
 6041.00    1.39499   1.36361   -1.000
 6042.00    1.39442   1.36385   -1.000
 6043.00    1.39861   1.36579   -1.000
 6044.00    1.39578   1.36894   -1.000
 6045.00    1.39207   1.37278   89.101
 6046.00    1.39496   1.37568   89.004
 6047.00    1.40043   1.37706   -1.000
 6048.00    1.40089   1.37690   -1.000
 6049.00    1.40056   1.37585   -1.000
 6050.00    1.40058   1.37432   -1.000
 6051.00    1.40227   1.37265   -1.000
 6052.00    1.40062   1.37113   -1.000
 6053.00    1.39377   1.36944   -1.000
 6054.00    1.38969   1.36780   -1.000
 6055.00    1.38739   1.36620   91.257
 6056.00    1.38739   1.36509   90.960
 6057.00    1.39084   1.36463   -1.000
 6058.00    1.39431   1.36492   -1.000
 6059.00    1.39486   1.36554   -1.000
 6060.00    1.38618   1.36547   90.877
 6061.00    1.37166   1.36375   92.455
 6062.00    1.36519   1.35964   92.859
 6063.00    1.30657   1.35431   -1.000
 6064.00    1.25813   1.34981   -1.000
 6065.00    1.31466   1.34868   32.860
 6066.00    1.33396   1.35162  101.432
 6067.00    1.34751   1.35749   90.362
 6068.00    1.36662   1.36387   89.772
 6069.00    1.47750   1.36911   -1.000
 6070.00    1.51347   1.37254   -1.000
 6071.00    1.39918   1.37467   -1.000
 6072.00    1.39937   1.37582   -1.000
 6073.00    1.39776   1.37606   -1.000
 6074.00    1.39541   1.37528   -1.000
 6075.00    1.39467   1.37337   -1.000
 6076.00    1.39418   1.37076   -1.000
 6077.00    1.39391   1.36806   -1.000
 6078.00    1.39048   1.36584   -1.000
 6079.00    1.38217   1.36420   92.120
 6080.00    1.38136   1.36288   92.269
 6081.00    1.38382   1.36160   92.475
 6082.00    1.38267   1.36059   92.416
 6083.00    1.38123   1.36013   92.338
 6084.00    1.38372   1.36056   -1.000
 6085.00    1.38151   1.36174   91.869
 6086.00    1.38132   1.36330   91.650
 6087.00    1.38624   1.36464   92.004
 6088.00    1.38918   1.36510   -1.000
 6089.00    1.38736   1.36447   -1.000
 6090.00    1.38357   1.36322   92.534
 6091.00    1.38514   1.36245   -1.000
 6092.00    1.38267   1.36289   91.470
 6093.00    1.38591   1.36471   90.976
 6094.00    1.38996   1.36729   -1.000
 6095.00    1.39477   1.36990   -1.000
 6096.00    1.38877   1.37197   91.050
 6097.00    1.38220   1.37282   91.072
 6098.00    1.38351   1.37168   91.393
 6099.00    1.38350   1.36754   92.944
 6100.00    1.37486   1.36049   95.116
 6101.00    1.36217   1.35194   95.883
 6102.00    1.34584   1.34560   94.631
 6103.00    1.34691   1.34383   92.846
 6104.00    1.35359   1.34736   91.817
 6105.00    1.36603   1.35367   91.802
 6106.00    1.37313   1.36030   92.173
 6107.00    1.37114   1.36555   92.300
 6108.00    1.36807   1.36926   92.188
 6109.00    1.37139   1.37135   91.913
 6110.00    1.37449   1.37215   91.602
 6111.00    1.37664   1.37199   91.488
 6112.00    1.37616   1.37175   91.023
 6113.00    1.37904   1.37173   91.010
 6114.00    1.37728   1.37205   91.493
 6115.00    1.36982   1.37205   91.978
 6116.00    1.37011   1.37099   92.146
 6117.00    1.37067   1.36772   92.900
 6118.00    1.36819   1.36090   94.300
 6119.00    1.36206   1.35159   95.400
 6120.00    1.34964   1.34151   96.031
 6121.00    1.33916   1.33465   95.530
 6122.00    1.33402   1.33381   93.920
 6123.00    1.33798   1.33878   93.118
 6124.00    1.35194   1.34700   93.375
 6125.00    1.36459   1.35441   93.766
 6126.00    1.36725   1.35876   93.545
 6127.00    1.36517   1.36040   93.173
 6128.00    1.36533   1.36148   92.316
 6129.00    1.36793   1.36384   91.644
 6130.00    1.36563   1.36736   91.635
 6131.00    1.36467   1.37025   92.047
 6132.00    1.37080   1.36977   93.352
 6133.00    1.36709   1.36395   95.789
 6134.00    1.35180   1.35282   98.563
 6135.00    1.33277   1.33879  100.329
 6136.00    1.31234   1.32734   99.539
 6137.00    1.30357   1.32243   96.692
 6138.00    1.30872   1.32461   94.460
 6139.00    1.32074   1.33005   93.948
 6140.00    1.33200   1.33519   94.211
 6141.00    1.33170   1.33978   94.012
 6142.00    1.33210   1.34508   92.894
 6143.00    1.34306   1.35158   92.072
 6144.00    1.35509   1.35752   92.206
 6145.00    1.36403   1.36078   92.726
 6146.00    1.36276   1.36089   93.353
 6147.00    1.35587   1.35863   93.997
 6148.00    1.35438   1.35602   94.365
 6149.00    1.35013   1.35448   94.209
 6150.00    1.34525   1.35488   93.737
 6151.00    1.34941   1.35655   93.217
 6152.00    1.35092   1.35836   93.442
 6153.00    1.35238   1.35893   94.230
 6154.00    1.35450   1.35792   94.539
 6155.00    1.35748   1.35566   94.669
 6156.00    1.35581   1.35262   95.293
 6157.00    1.34929   1.34847   96.615
 6158.00    1.34316   1.34185   98.875
 6159.00    1.33126   1.33130  101.954
 6160.00    1.31886   1.31776  104.276
 6161.00    1.30109   1.30486  104.279
 6162.00    1.28731   1.29767  102.076
 6163.00    1.28938   1.29820   99.539
 6164.00    1.30456   1.30475   98.501
 6165.00    1.31206   1.31255   98.382
 6166.00    1.31845   1.31808   99.016
 6167.00    1.31853   1.31978  100.326
 6168.00    1.31207   1.31908  100.744
 6169.00    1.30330   1.31852   99.440
 6170.00    1.30074   1.32042   97.576
 6171.00    1.31001   1.32507   96.741
 6172.00    1.31902   1.33102   96.973
 6173.00    1.31864   1.33653   96.926
 6174.00    1.31973   1.34090   96.674
 6175.00    1.32672   1.34400   96.476
 6176.00    1.32687   1.34623   96.135
 6177.00    1.32402   1.34768   95.677
 6178.00    1.32954   1.34864   95.361
 6179.00    1.33343   1.34941   95.014
 6180.00    1.32953   1.35034   94.619
 6181.00    1.33259   1.35148   94.541
 6182.00    1.33748   1.35258   94.820
 6183.00    1.33659   1.35314   95.298
 6184.00    1.33562   1.35269   96.198
 6185.00    1.33436   1.35075   97.259
 6186.00    1.33596   1.34713   98.228
 6187.00    1.32714   1.34172   99.084
 6188.00    1.31951   1.33457   99.962
 6189.00    1.31641   1.32677  101.136
 6190.00    1.30490   1.32036  101.121
 6191.00    1.29813   1.31830   99.360
 6192.00    1.29795   1.32162   97.036
 6193.00    1.31302   1.32909   95.885
 6194.00    1.32318   1.33734   95.527
 6195.00    1.32742   1.34388   95.667
 6196.00    1.33357   1.34713   96.533
 6197.00    1.32856   1.34753   97.594
 6198.00    1.31810   1.34596   98.056
 6199.00    1.31246   1.34475   97.579
 6200.00    1.30162   1.34511   -1.000
 6201.00    1.30670   1.34754   -1.000
 6202.00    1.31474   1.35097   -1.000
 6203.00    1.32041   1.35419   95.399
 6204.00    1.32492   1.35670   95.266
 6205.00    1.32672   1.35839   95.407
 6206.00    1.33539   1.35941   95.695
 6207.00    1.33901   1.35968   95.774
 6208.00    1.33472   1.35897   96.406
 6209.00    1.33319   1.35704   97.294
 6210.00    1.32903   1.35365   98.092
 6211.00    1.31873   1.34875   99.258
 6212.00    1.31684   1.34280  100.668
 6213.00    1.31270   1.33706  101.366
 6214.00    1.30733   1.33265  101.033
 6215.00    1.30893   1.33010   99.813
 6216.00    1.31068   1.32857   99.863
 6217.00    1.30950   1.32737  100.376
 6218.00    1.30407   1.32615   99.729
 6219.00    1.30643   1.32574   99.417
 6220.00    1.28514   1.32657   -1.000
 6221.00    1.20920   1.32852   -1.000
 6222.00    1.26852   1.33067   -1.000
 6223.00    1.33960   1.33253   98.503
 6224.00    1.32972   1.33380   98.838
 6225.00    1.32703   1.33423   99.016
 6226.00    1.32214   1.33299   99.901
 6227.00    1.31989   1.32899  101.445
 6228.00    1.31448   1.32230  103.028
 6229.00    1.30193   1.31469  103.716
 6230.00    1.28685   1.30942  102.740
 6231.00    1.28275   1.30898  101.021
 6232.00    1.28947   1.31372   99.159
 6233.00    1.30114   1.32117   97.962
 6234.00    1.31166   1.32820   97.994
 6235.00    1.31494   1.33191   98.866
 6236.00    1.31661   1.33201   99.890
 6237.00    1.31420   1.32927  100.919
 6238.00    1.31169   1.32591  101.787
 6239.00    1.30927   1.32314  101.983
 6240.00    1.30477   1.32144  102.167
 6241.00    1.30563   1.31991  102.986
 6242.00    1.30212   1.31761  103.394
 6243.00    1.29653   1.31443  103.055
 6244.00    1.29449   1.31136  102.224
 6245.00    1.28989   1.31019  101.082
 6246.00    1.29038   1.31210   99.845
 6247.00    1.29204   1.31664   99.144
 6248.00    1.29646   1.32163   99.473
 6249.00    1.30366   1.32441  100.796
 6250.00    1.30181   1.32323  102.547
 6251.00    1.28748   1.31874  103.543
 6252.00    1.27142   1.31327   -1.000
 6253.00    1.26690   1.30913   -1.000
 6254.00    1.27120   1.30726   -1.000
 6255.00    1.27333   1.30709   -1.000
 6256.00    1.27097   1.30766   -1.000
 6257.00    1.27018   1.30917   -1.000
 6258.00    1.27581   1.31205   -1.000
 6259.00    1.28607   1.31680  101.841
 6260.00    1.29193   1.32245  100.406
 6261.00    1.29146   1.32803   -1.000
 6262.00    1.29140   1.33219   -1.000
 6263.00    1.29520   1.33474   -1.000
 6264.00    1.29166   1.33590   -1.000
 6265.00    1.28576   1.33650   -1.000
 6266.00    1.28006   1.33708   -1.000
 6267.00    1.28203   1.33731   -1.000
 6268.00    1.28699   1.33695   -1.000
 6269.00    1.28470   1.33578   -1.000
 6270.00    1.28335   1.33416   -1.000
 6271.00    1.28473   1.33195   -1.000
 6272.00    1.28033   1.32838   -1.000
 6273.00    1.26918   1.32271   -1.000
 6274.00    1.25371   1.31472   -1.000
 6275.00    1.23370   1.30581   -1.000
 6276.00    1.20854   1.29744   -1.000
 6277.00    1.19502   1.29168   -1.000
 6278.00    1.18956   1.28910   -1.000
 6279.00    1.18279   1.29020   -1.000
 6280.00    1.17100   1.29458   -1.000
 6281.00    1.16971   1.30188   -1.000
 6282.00    1.18285   1.31073   -1.000
 6283.00    1.20096   1.31981   -1.000
 6284.00    1.21820   1.32736   -1.000
 6285.00    1.23501   1.33280   -1.000
 6286.00    1.25344   1.33575   -1.000
 6287.00    1.26791   1.33663   -1.000
 6288.00    1.27126   1.33558   -1.000
 6289.00    1.26783   1.33353   -1.000
 6290.00    1.26620   1.33103   -1.000
 6291.00    1.26898   1.32900   -1.000
 6292.00    1.27004   1.32712   -1.000
 6293.00    1.25984   1.32517   -1.000
 6294.00    1.24815   1.32251   -1.000
 6295.00    1.22637   1.31927   -1.000
 6296.00    1.17899   1.31612   -1.000
 6297.00    1.11862   1.31381   -1.000
 6298.00    1.06187   1.31279   -1.000
 6299.00    1.07425   1.31267   -1.000
 6300.00    1.15293   1.31314   -1.000
 6301.00    1.22813   1.31465   -1.000
 6302.00    1.25281   1.31753   -1.000
 6303.00    1.26301   1.32179   -1.000
 6304.00    1.26964   1.32651   -1.000
 6305.00    1.27188   1.33073   -1.000
 6306.00    1.27371   1.33420   -1.000
 6307.00    1.27927   1.33685   -1.000
 6308.00    1.27925   1.33883   -1.000
 6309.00    1.27663   1.34004   -1.000
 6310.00    1.27347   1.34030   -1.000
 6311.00    1.27492   1.33951   -1.000
 6312.00    1.27738   1.33775   -1.000
 6313.00    1.26768   1.33532   -1.000
 6314.00    1.25871   1.33260   -1.000
 6315.00    1.26275   1.33005   -1.000
 6316.00    1.26378   1.32799   -1.000
 6317.00    1.25635   1.32706   -1.000
 6318.00    1.25398   1.32808   -1.000
 6319.00    1.25711   1.33102   -1.000
 6320.00    1.26859   1.33516   -1.000
 6321.00    1.27391   1.33947   -1.000
 6322.00    1.27311   1.34338   -1.000
 6323.00    1.27694   1.34686   -1.000
 6324.00    1.28459   1.34970   -1.000
 6325.00    1.28853   1.35158   -1.000
 6326.00    1.28987   1.35244   -1.000
 6327.00    1.28613   1.35254   -1.000
 6328.00    1.28866   1.35250   -1.000
 6329.00    1.29325   1.35273   -1.000
 6330.00    1.29948   1.35318   -1.000
 6331.00    1.29526   1.35322   -1.000
 6332.00    1.29417   1.35161   -1.000
 6333.00    1.30142   1.34806   -1.000
 6334.00    1.28626   1.34307   -1.000
 6335.00    1.26873   1.33909   -1.000
 6336.00    1.26213   1.33787   -1.000
 6337.00    1.27004   1.33991   -1.000
 6338.00    1.28003   1.34402   -1.000
 6339.00    1.28727   1.34834   -1.000
 6340.00    1.29021   1.35135   -1.000
 6341.00    1.29195   1.35244   -1.000
 6342.00    1.29095   1.35163   -1.000
 6343.00    1.28633   1.34975   -1.000
 6344.00    1.28254   1.34812   -1.000
 6345.00    1.28589   1.34763   -1.000
 6346.00    1.28865   1.34908   -1.000
 6347.00    1.28760   1.35207   -1.000
 6348.00    1.29241   1.35599   -1.000
 6349.00    1.29355   1.35948   -1.000
 6350.00    1.29241   1.36153   -1.000
 6351.00    1.29382   1.36152   -1.000
 6352.00    1.29446   1.35981   -1.000
 6353.00    1.28967   1.35705   -1.000
 6354.00    1.28064   1.35428   -1.000
 6355.00    1.27860   1.35177   -1.000
 6356.00    1.27958   1.34954   -1.000
 6357.00    1.27830   1.34719   -1.000
 6358.00    1.26566   1.34490   -1.000
 6359.00    1.25327   1.34300   -1.000
 6360.00    1.24158   1.34160   -1.000
 6361.00    1.22738   1.34098   -1.000
 6362.00    1.22288   1.34123   -1.000
 6363.00    1.23653   1.34273   -1.000
 6364.00    1.26177   1.34522   -1.000
 6365.00    1.28005   1.34823   -1.000
 6366.00    1.28500   1.35086   -1.000
 6367.00    1.28446   1.35258   -1.000
 6368.00    1.28238   1.35284   -1.000
 6369.00    1.28161   1.35213   -1.000
 6370.00    1.27894   1.35126   -1.000
 6371.00    1.28194   1.35139   -1.000
 6372.00    1.28008   1.35293   -1.000
 6373.00    1.27362   1.35521   -1.000
 6374.00    1.27232   1.35715   -1.000
 6375.00    1.27240   1.35803   -1.000
 6376.00    1.26908   1.35760   -1.000
 6377.00    1.26270   1.35618   -1.000
 6378.00    1.26277   1.35420   -1.000
 6379.00    1.26014   1.35214   -1.000
 6380.00    1.25741   1.35048   -1.000
 6381.00    1.25575   1.34961   -1.000
 6382.00    1.25428   1.34956   -1.000
 6383.00    1.25208   1.35028   -1.000
 6384.00    1.24699   1.35138   -1.000
 6385.00    1.24098   1.35273   -1.000
 6386.00    1.23798   1.35389   -1.000
 6387.00    1.23727   1.35448   -1.000
 6388.00    1.23229   1.35404   -1.000
 6389.00    1.22895   1.35211   -1.000
 6390.00    1.22690   1.34839   -1.000
 6391.00    1.21350   1.34361   -1.000
 6392.00    1.19729   1.33932   -1.000
 6393.00    1.18642   1.33772   -1.000
 6394.00    1.18435   1.33940   -1.000
 6395.00    1.18764   1.34276   -1.000
 6396.00    1.18976   1.34514   -1.000
 6397.00    1.18663   1.34429   -1.000
 6398.00    1.16908   1.34102   -1.000
 6399.00    1.15231   1.33777   -1.000
 6400.00    1.14286   1.33780   -1.000
 6401.00    1.14505   1.34171   -1.000
 6402.00    1.15043   1.34788   -1.000
 6403.00    1.14839   1.35335   -1.000
 6404.00    1.14589   1.35592   -1.000
 6405.00    1.14126   1.35501   -1.000
 6406.00    1.13149   1.35205   -1.000
 6407.00    1.12276   1.34869   -1.000
 6408.00    1.11654   1.34671   -1.000
 6409.00    1.10782   1.34628   -1.000
 6410.00    1.09613   1.34649   -1.000
 6411.00    1.08790   1.34695   -1.000
 6412.00    1.08435   1.34737   -1.000
 6413.00    1.08514   1.34808   -1.000
 6414.00    1.07979   1.34883   -1.000
 6415.00    1.07045   1.34962   -1.000
 6416.00    1.06273   1.34957   -1.000
 6417.00    1.05358   1.34827   -1.000
 6418.00    1.04240   1.34554   -1.000
 6419.00    1.02919   1.34242   -1.000
 6420.00    1.01502   1.34090   -1.000
 6421.00    1.00680   1.34249   -1.000
 6422.00    1.00120   1.34710   -1.000
 6423.00    0.99408   1.35326   -1.000
 6424.00    0.99061   1.35888   -1.000
 6425.00    0.98494   1.36252   -1.000
 6426.00    0.97593   1.36328   -1.000
 6427.00    0.96699   1.36089   -1.000
 6428.00    0.95463   1.35578   -1.000
