###################################################################
## OUTPUT of StarlightChains_v04.for    [Cid@UFSC - 01/Apr/2007] ##
###################################################################

## Some input info
NGC6624_a_2.cxt                          [arq_obs]
Base.BC03.S                              [arq_base]
NGC6624_a_2.msk                          [arq_masks]
StCv04.C99.config                        [arq_config]
  150                                    [N_base]
    0                                    [N_YAV_components = # of components with extra extinction!]
    0                                    [i_FitPowerLaw (1/0 = Yes/No)]
-9.99                                    [alpha_PowerLaw]
CCM                                      [red_law_option]
 1.458241                                [q_norm = A(l_norm)/A(V)]

## (Re)Sampling Parameters
 3359.00                                 [l_ini (A)]
 6428.00                                 [l_fin (A)]
    1.00                                 [dl    (A)]     (OBS: dl_cushion =    50.00 A)

## Normalization info
 4020.00                                 [l_norm (A) - for base]
 4010.00                                 [llow_norm (A) - window for f_obs]
 4060.00                                 [lupp_norm (A) - window for f_obs]
2.206219E-14                             [fobs_norm (in input units)]

## S/N
 4730.00                                 [llow_SN (A) - window for S/N]
 4780.00                                 [lupp_SN (A) - window for S/N]
  40.676                                 [S/N in S/N window]
  27.417                                 [S/N in norm. window]
 123.712                                 [S/N_err in S/N window]
  83.385                                 [S/N_err in norm. window]
  1.0000                                 [fscale_chi2]

## etc...
  2147483596                             [idum_orig]
  3066                                   [NOl_eff]
  1240                                   [Nl_eff]
  1826    NSIGMA                         [Ntot_cliped & clip_method]
  3082940                                [Nglobal_steps]
   7                                     [N_chains]
  20                                     [NEX0s_base = N_base in EX0s-fits]
 0   0   1      121   2.0   9.133E+02    [Clip-Bug, RC-Crash & Burn-In warning-flags, n_censored_weights, wei_nsig_threshold & wei_limit]
   119    119.730    119.707      0.024  [idt_all, wdt_TotTime, wdt_UsrTime & wdt_SysTime (sec)]

## Synthesis Results - Best model ##

 2.44590E+00                             [chi2/Nl_eff]
     1.27525                             [adev (%)]

    98.97249                             [sum-of-x (%)]
 4.95217E-14                             [Flux_tot (units of input spectrum!)]
 2.27226E-09                             [Mini_tot (???)]
 1.14453E-09                             [Mcor_tot (???)]

  27.64                                  [v0_min  (km/s)]
  47.22                                  [vd_min  (km/s)]
 0.6097                                  [AV_min  (mag)]
 0.0000                                  [YAV_min (mag)]

# j     x_j(%)      Mini_j(%)     Mcor_j(%)     age_j(yr)     Z_j      (L/M)_j    YAV?  Mstars   component_j        a/Fe...       SSP_chi2r SSP_adev(%)   SSP_AV   SSP_x(%)
  1      0.0000     0.0000E+00    0.0000E+00    1.000000E+06  0.00010  8.160E-03    0   1.0000   age020_m22            0.0000     1.2027E+03    25.2342   4.0000    83.9321
  2      0.0000     0.0000E+00    0.0000E+00    3.160000E+06  0.00010  4.759E-02    0   1.0000   age045_m22            0.0000     1.5633E+02    10.1516   2.8087    95.2775
  3      0.0000     0.0000E+00    0.0000E+00    5.010000E+06  0.00010  1.932E-02    0   0.9582   age055_m22            0.0000     4.1927E+02    15.7602   3.1888    79.4131
  4      0.0000     0.0000E+00    0.0000E+00    6.610000E+06  0.00010  9.973E-03    0   0.9297   age061_m22            0.0000     1.1474E+03    24.4951   4.0000    86.6605
  5      0.0000     0.0000E+00    0.0000E+00    8.710000E+06  0.00010  7.690E-03    0   0.9030   age067_m22            0.0000     1.1080E+03    24.1410   4.0000    87.2160
  6      0.0000     0.0000E+00    0.0000E+00    1.000000E+07  0.00010  6.375E-03    0   0.8902   age070_m22            0.0000     1.1030E+03    24.1025   4.0000    87.6672
  7      0.0000     0.0000E+00    0.0000E+00    1.445000E+07  0.00010  4.874E-03    0   0.8589   age078_m22            0.0000     7.4734E+02    20.3520   4.0000    89.7066
  8      0.0000     0.0000E+00    0.0000E+00    2.512000E+07  0.00010  4.103E-03    0   0.8174   age090_m22            0.0000     2.7839E+02    13.4994   4.0000    91.6272
  9      0.0000     0.0000E+00    0.0000E+00    4.000000E+07  0.00010  3.654E-03    0   0.7830   age104_m22            0.0000     2.0627E+02    12.2541   3.8747    93.8590
 10      0.0000     0.0000E+00    0.0000E+00    5.500000E+07  0.00010  3.093E-03    0   0.7597   age110_m22            0.0000     2.0301E+02    11.8817   3.7620    95.8826
 11      0.0000     0.0000E+00    0.0000E+00    1.015200E+08  0.00010  2.431E-03    0   0.7138   age116_m22            0.0000     2.2297E+02    11.8363   3.3925    99.6666
 12      0.0000     0.0000E+00    0.0000E+00    1.609000E+08  0.00010  1.319E-03    0   0.6775   age120_m22            0.0000     2.0698E+02    11.1849   2.9179   101.8389
 13      0.0000     0.0000E+00    0.0000E+00    2.861200E+08  0.00010  1.075E-03    0   0.6412   age125_m22            0.0000     3.5092E+02    12.6227   2.9380   107.3209
 14      0.0000     0.0000E+00    0.0000E+00    5.088000E+08  0.00010  7.183E-04    0   0.6083   age130_m22            0.0000     4.0412E+02    13.1048   2.6932   109.6594
 15      0.0000     0.0000E+00    0.0000E+00    9.047900E+08  0.00010  4.524E-04    0   0.5785   age135_m22            0.0000     4.0634E+02    13.0304   2.4857   111.1226
 16      0.0000     0.0000E+00    0.0000E+00    1.278050E+09  0.00010  3.018E-04    0   0.5588   age138_m22            0.0000     2.3332E+02    10.3614   1.9815   108.1991
 17      0.0000     0.0000E+00    0.0000E+00    1.434000E+09  0.00010  2.691E-04    0   0.5532   age139_m22            0.0000     2.0336E+02     9.7874   1.8316   107.3773
 18      0.0000     0.0000E+00    0.0000E+00    2.500000E+09  0.00010  1.582E-04    0   0.5296   age150_m22            0.0000     1.9093E+02     9.8043   1.7178   108.0464
 19      0.0000     0.0000E+00    0.0000E+00    4.250000E+09  0.00010  1.007E-04    0   0.5110   age158_m22            0.0000     1.3939E+02     8.7363   1.5831   105.5656
 20      0.0000     0.0000E+00    0.0000E+00    6.250000E+09  0.00010  6.869E-05    0   0.4985   age166_m22            0.0000     1.0685E+02     7.9324   1.5470   101.8699
 21      0.0000     0.0000E+00    0.0000E+00    7.500000E+09  0.00010  5.873E-05    0   0.4931   age171_m22            0.0000     1.0764E+02     8.0628   1.5380   101.1903
 22      0.0000     0.0000E+00    0.0000E+00    1.000000E+10  0.00010  4.481E-05    0   0.4854   age181_m22            0.0000     1.0487E+02     7.9660   1.5010   100.7953
 23      0.0000     0.0000E+00    0.0000E+00    1.300000E+10  0.00010  3.489E-05    0   0.4791   age193_m22            0.0000     9.8645E+01     7.7331   1.4457   100.1958
 24      0.0007     4.8787E-04    4.6163E-04    1.500000E+10  0.00010  3.035E-05    0   0.4766   age201_m22            0.0000     9.5379E+01     7.6239   1.4078    99.9688
 25      0.0070     6.1495E-03    5.7808E-03    1.800000E+10  0.00010  2.510E-05    0   0.4735   age213_m22            0.0000     8.9215E+01     7.4098   1.3415    99.2627
 26      0.0000     0.0000E+00    0.0000E+00    1.000000E+06  0.00040  8.458E-03    0   1.0000   age020_m32            0.0000     1.2198E+03    25.3237   4.0000    84.7833
 27      0.0000     0.0000E+00    0.0000E+00    3.160000E+06  0.00040  3.973E-02    0   1.0000   age045_m32            0.0000     2.6229E+02    13.1529   4.0000    89.5710
 28      0.0000     0.0000E+00    0.0000E+00    5.010000E+06  0.00040  1.935E-02    0   0.9532   age055_m32            0.0000     5.2800E+02    17.1126   4.0000    86.4100
 29      0.0000     0.0000E+00    0.0000E+00    6.610000E+06  0.00040  1.204E-02    0   0.9243   age061_m32            0.0000     8.7427E+02    21.7238   4.0000    87.9808
 30      0.0000     0.0000E+00    0.0000E+00    8.710000E+06  0.00040  9.433E-03    0   0.9001   age067_m32            0.0000     7.9844E+02    20.9136   4.0000    88.8969
 31      0.0000     0.0000E+00    0.0000E+00    1.000000E+07  0.00040  8.053E-03    0   0.8877   age070_m32            0.0000     7.4116E+02    20.2242   4.0000    89.0799
 32      0.0000     0.0000E+00    0.0000E+00    1.445000E+07  0.00040  7.027E-03    0   0.8578   age078_m32            0.0000     2.9343E+02    14.0804   4.0000    87.2430
 33      0.0000     0.0000E+00    0.0000E+00    2.512000E+07  0.00040  4.707E-03    0   0.8166   age090_m32            0.0000     2.3108E+02    12.9651   3.7583    90.5353
 34      0.0000     0.0000E+00    0.0000E+00    4.000000E+07  0.00040  3.714E-03    0   0.7827   age104_m32            0.0000     2.0344E+02    12.1749   3.5263    95.0791
 35      0.0000     0.0000E+00    0.0000E+00    5.500000E+07  0.00040  2.982E-03    0   0.7593   age110_m32            0.0000     2.0249E+02    11.9593   3.4546    96.6799
 36      0.0000     0.0000E+00    0.0000E+00    1.015200E+08  0.00040  2.188E-03    0   0.7143   age116_m32            0.0000     2.4917E+02    11.8270   3.1504   102.6289
 37      0.0000     0.0000E+00    0.0000E+00    1.609000E+08  0.00040  1.690E-03    0   0.6856   age120_m32            0.0000     3.1147E+02    12.2570   2.9216   106.3193
 38      0.0000     0.0000E+00    0.0000E+00    2.861200E+08  0.00040  1.152E-03    0   0.6509   age125_m32            0.0000     3.6158E+02    12.6000   2.6844   108.7577
 39      0.0000     0.0000E+00    0.0000E+00    5.088000E+08  0.00040  7.331E-04    0   0.6182   age130_m32            0.0000     3.8113E+02    12.6720   2.5136   109.7763
 40      0.0000     0.0000E+00    0.0000E+00    9.047900E+08  0.00040  3.960E-04    0   0.5890   age135_m32            0.0000     2.3477E+02    10.2953   2.0732   107.4520
 41      0.0000     0.0000E+00    0.0000E+00    1.278050E+09  0.00040  2.854E-04    0   0.5687   age138_m32            0.0000     2.0614E+02     9.9740   1.7782   109.2955
 42      0.0000     0.0000E+00    0.0000E+00    1.434000E+09  0.00040  2.531E-04    0   0.5632   age139_m32            0.0000     2.0256E+02     9.9011   1.7170   109.2860
 43      0.0000     0.0000E+00    0.0000E+00    2.500000E+09  0.00040  1.488E-04    0   0.5386   age150_m32            0.0000     1.5980E+02     8.8864   1.4685   107.1446
 44      0.0000     0.0000E+00    0.0000E+00    4.250000E+09  0.00040  9.082E-05    0   0.5199   age158_m32            0.0000     9.4989E+01     7.3034   1.4013   102.4542
 45      0.1145     3.9621E-02    3.9928E-02    6.250000E+09  0.00040  6.362E-05    0   0.5076   age166_m32            0.0000     8.0295E+01     6.9284   1.3867    97.9267
 46     13.9054     5.7894E+00    5.7780E+00    7.500000E+09  0.00040  5.289E-05    0   0.5027   age171_m32            0.0000     7.6553E+01     6.7445   1.3561    96.4607
 47     16.6344     9.2219E+00    9.0590E+00    1.000000E+10  0.00040  3.972E-05    0   0.4948   age181_m32            0.0000     7.0984E+01     6.4737   1.2980    94.9822
 48      0.0055     3.6807E-03    3.5587E-03    1.300000E+10  0.00040  3.283E-05    0   0.4870   age193_m32            0.0000     6.8879E+01     6.4368   1.2382    98.3589
 49      0.0000     0.0000E+00    0.0000E+00    1.500000E+10  0.00040  2.925E-05    0   0.4854   age201_m32            0.0000     7.2723E+01     6.5677   1.2105   100.3497
 50      0.0000     0.0000E+00    0.0000E+00    1.800000E+10  0.00040  2.469E-05    0   0.4819   age213_m32            0.0000     7.3354E+01     6.5612   1.1661   101.0644
 51      0.0000     0.0000E+00    0.0000E+00    1.000000E+06  0.00400  1.114E-02    0   1.0000   age020_m42            0.0000     1.0896E+03    24.0322   4.0000    84.8477
 52      0.0000     0.0000E+00    0.0000E+00    3.160000E+06  0.00400  4.073E-02    0   0.9999   age045_m42            0.0000     1.9242E+02    11.5415   3.8100    90.4381
 53      0.0000     0.0000E+00    0.0000E+00    5.010000E+06  0.00400  2.534E-02    0   0.9488   age055_m42            0.0000     3.4659E+02    14.3961   4.0000    87.3702
 54      0.0000     0.0000E+00    0.0000E+00    6.610000E+06  0.00400  2.583E-02    0   0.9220   age061_m42            0.0000     1.8559E+02    11.6415   3.6031    92.0604
 55      0.0000     0.0000E+00    0.0000E+00    8.710000E+06  0.00400  1.706E-02    0   0.8983   age067_m42            0.0000     2.2821E+02    12.9351   3.4464    89.4031
 56      0.0000     0.0000E+00    0.0000E+00    1.000000E+07  0.00400  1.271E-02    0   0.8862   age070_m42            0.0000     2.8077E+02    14.2728   3.4464    87.3744
 57      0.0000     0.0000E+00    0.0000E+00    1.445000E+07  0.00400  7.666E-03    0   0.8571   age078_m42            0.0000     3.2182E+02    14.8880   3.8670    83.4617
 58      0.0000     0.0000E+00    0.0000E+00    2.512000E+07  0.00400  5.070E-03    0   0.8174   age090_m42            0.0000     2.5715E+02    13.6535   3.3134    89.0666
 59      0.0000     0.0000E+00    0.0000E+00    4.000000E+07  0.00400  3.505E-03    0   0.7851   age104_m42            0.0000     1.9587E+02    11.8763   2.9882    92.4171
 60      0.0000     0.0000E+00    0.0000E+00    5.500000E+07  0.00400  3.059E-03    0   0.7629   age110_m42            0.0000     1.6186E+02    10.5140   2.9978    98.9695
 61      0.0000     0.0000E+00    0.0000E+00    1.015200E+08  0.00400  2.268E-03    0   0.7207   age116_m42            0.0000     2.6667E+02    11.2693   2.8448   106.7856
 62      0.0000     0.0000E+00    0.0000E+00    1.609000E+08  0.00400  1.720E-03    0   0.6930   age120_m42            0.0000     2.8110E+02    11.1277   2.6963   108.7550
 63      0.0000     0.0000E+00    0.0000E+00    2.861200E+08  0.00400  1.079E-03    0   0.6613   age125_m42            0.0000     2.6772E+02    10.8658   2.3414   109.3380
 64      0.0000     0.0000E+00    0.0000E+00    5.088000E+08  0.00400  6.261E-04    0   0.6313   age130_m42            0.0000     3.0606E+02    11.3729   2.1249   113.1702
 65      0.0000     0.0000E+00    0.0000E+00    9.047900E+08  0.00400  3.535E-04    0   0.6024   age135_m42            0.0000     1.9548E+02     9.2596   1.7367   112.8373
 66      0.0000     0.0000E+00    0.0000E+00    1.278050E+09  0.00400  2.677E-04    0   0.5837   age138_m42            0.0000     6.3602E+01     5.3835   1.0866   108.9975
 67      0.0000     0.0000E+00    0.0000E+00    1.434000E+09  0.00400  1.910E-04    0   0.5716   age139_m42            0.0000     9.0219E+01     6.1072   1.2506   110.0010
 68      0.0000     0.0000E+00    0.0000E+00    2.500000E+09  0.00400  9.818E-05    0   0.5463   age150_m42            0.0000     2.1594E+01     3.1020   1.0205   103.4976
 69      0.0000     0.0000E+00    0.0000E+00    4.250000E+09  0.00400  5.491E-05    0   0.5269   age158_m42            0.0000     9.0727E+00     2.1683   0.9130   100.1182
 70      0.0000     0.0000E+00    0.0000E+00    6.250000E+09  0.00400  3.857E-05    0   0.5151   age166_m42            0.0000     5.3838E+00     1.6955   0.7935    98.5932
 71      0.0000     0.0000E+00    0.0000E+00    7.500000E+09  0.00400  3.243E-05    0   0.5110   age171_m42            0.0000     5.1376E+00     1.6845   0.7170    98.0289
 72      0.0318     2.8895E-02    2.8844E-02    1.000000E+10  0.00400  2.424E-05    0   0.5028   age181_m42            0.0000     6.8751E+00     1.9807   0.6391    97.4206
 73      7.6042     8.8925E+00    8.6984E+00    1.300000E+10  0.00400  1.883E-05    0   0.4927   age193_m42            0.0000     1.0374E+01     2.4381   0.5998    97.1389
 74      1.9313     2.5240E+00    2.4649E+00    1.500000E+10  0.00400  1.685E-05    0   0.4919   age201_m42            0.0000     9.8068E+00     2.3470   0.6055    97.1268
 75      0.0287     4.3509E-02    4.2102E-02    1.800000E+10  0.00400  1.452E-05    0   0.4874   age213_m42            0.0000     9.1443E+00     2.2109   0.6221    97.3478
 76      0.0000     0.0000E+00    0.0000E+00    1.000000E+06  0.00800  1.286E-02    0   1.0000   age020_m52            0.0000     1.0185E+03    23.0749   4.0000    86.6862
 77      0.0000     0.0000E+00    0.0000E+00    3.160000E+06  0.00800  3.147E-02    0   0.9966   age045_m52            0.0000     8.8381E+02    21.7269   4.0000    87.6544
 78      0.0000     0.0000E+00    0.0000E+00    5.010000E+06  0.00800  2.664E-02    0   0.9443   age055_m52            0.0000     4.6099E+02    16.0582   4.0000    87.8155
 79      0.0000     0.0000E+00    0.0000E+00    6.610000E+06  0.00800  2.151E-02    0   0.9177   age061_m52            0.0000     2.3320E+02    12.3372   3.0575    88.4607
 80      0.0000     0.0000E+00    0.0000E+00    8.710000E+06  0.00800  1.628E-02    0   0.8948   age067_m52            0.0000     2.5276E+02    13.3289   3.4213    89.0676
 81      0.0000     0.0000E+00    0.0000E+00    1.000000E+07  0.00800  1.215E-02    0   0.8827   age070_m52            0.0000     2.8860E+02    14.1959   3.7716    86.8145
 82      0.0000     0.0000E+00    0.0000E+00    1.445000E+07  0.00800  8.739E-03    0   0.8552   age078_m52            0.0000     2.6139E+02    13.6953   3.8004    88.5533
 83      0.0000     0.0000E+00    0.0000E+00    2.512000E+07  0.00800  5.676E-03    0   0.8162   age090_m52            0.0000     2.2347E+02    12.8888   3.3651    94.6791
 84      0.0000     0.0000E+00    0.0000E+00    4.000000E+07  0.00800  3.939E-03    0   0.7841   age104_m52            0.0000     2.0168E+02    11.9063   3.1858    97.9371
 85      0.0000     0.0000E+00    0.0000E+00    5.500000E+07  0.00800  3.155E-03    0   0.7627   age110_m52            0.0000     2.0079E+02    11.3810   3.1379   100.4026
 86      0.0000     0.0000E+00    0.0000E+00    1.015200E+08  0.00800  2.206E-03    0   0.7226   age116_m52            0.0000     2.2748E+02    10.8997   2.9188   105.7838
 87      0.0000     0.0000E+00    0.0000E+00    1.609000E+08  0.00800  1.596E-03    0   0.6963   age120_m52            0.0000     2.4355E+02    10.8330   2.6904   108.1119
 88      0.0000     0.0000E+00    0.0000E+00    2.861200E+08  0.00800  1.002E-03    0   0.6665   age125_m52            0.0000     3.0991E+02    11.2987   2.3747   112.0664
 89      0.0000     0.0000E+00    0.0000E+00    5.088000E+08  0.00800  5.759E-04    0   0.6377   age130_m52            0.0000     3.1636E+02    10.8833   2.0185   116.5609
 90      0.0000     0.0000E+00    0.0000E+00    9.047900E+08  0.00800  2.972E-04    0   0.6086   age135_m52            0.0000     1.6780E+02     8.0594   1.5151   113.8890
 91      0.0000     0.0000E+00    0.0000E+00    1.278050E+09  0.00800  2.242E-04    0   0.5907   age138_m52            0.0000     5.1952E+01     4.7623   0.9313   111.2203
 92      0.0000     0.0000E+00    0.0000E+00    1.434000E+09  0.00800  1.645E-04    0   0.5787   age139_m52            0.0000     4.6983E+01     4.4976   1.0848   110.3520
 93      0.0000     0.0000E+00    0.0000E+00    2.500000E+09  0.00800  7.723E-05    0   0.5519   age150_m52            0.0000     1.2783E+01     2.5327   0.7678   105.6722
 94      0.0000     0.0000E+00    0.0000E+00    4.250000E+09  0.00800  4.151E-05    0   0.5320   age158_m52            0.0000     6.3861E+00     1.8415   0.7048   102.7965
 95      0.0000     0.0000E+00    0.0000E+00    6.250000E+09  0.00800  3.010E-05    0   0.5197   age166_m52            0.0000     7.6425E+00     2.1152   0.5178   101.2702
 96      0.2689     2.4000E-01    2.4486E-01    7.500000E+09  0.00800  2.467E-05    0   0.5139   age171_m52            0.0000     9.3872E+00     2.3441   0.4768   100.8823
 97     46.8846     5.5447E+01    5.5634E+01    1.000000E+10  0.00800  1.862E-05    0   0.5054   age181_m52            0.0000     1.7841E+01     3.2115   0.3472   100.5608
 98      6.9963     1.0751E+01    1.0646E+01    1.300000E+10  0.00800  1.433E-05    0   0.4988   age193_m52            0.0000     3.0994E+01     4.2030   0.2526   101.2393
 99      0.0000     0.0000E+00    0.0000E+00    1.500000E+10  0.00800  1.244E-05    0   0.4936   age201_m52            0.0000     3.7437E+01     4.5810   0.2243   101.7161
100      0.0229     4.7153E-02    4.5759E-02    1.800000E+10  0.00800  1.070E-05    0   0.4888   age213_m52            0.0000     4.2061E+01     4.8674   0.1897   101.5935
101      0.0000     0.0000E+00    0.0000E+00    1.000000E+06  0.02000  1.989E-02    0   1.0000   age020_m62            0.0000     1.0241E+03    23.2484   4.0000    85.4332
102      0.0000     0.0000E+00    0.0000E+00    3.160000E+06  0.02000  3.772E-02    0   0.9858   age045_m62            0.0000     8.0892E+02    21.0175   4.0000    86.6137
103      0.0000     0.0000E+00    0.0000E+00    5.010000E+06  0.02000  3.227E-02    0   0.9342   age055_m62            0.0000     2.5160E+02    13.3248   4.0000    88.2053
104      0.0000     0.0000E+00    0.0000E+00    6.610000E+06  0.02000  2.387E-02    0   0.9090   age061_m62            0.0000     3.1733E+02    14.9739   3.8397    85.4819
105      0.0000     0.0000E+00    0.0000E+00    8.710000E+06  0.02000  1.102E-02    0   0.8861   age067_m62            0.0000     6.3752E+02    20.3761   3.5062    79.1151
106      0.0000     0.0000E+00    0.0000E+00    1.000000E+07  0.02000  1.011E-02    0   0.8751   age070_m62            0.0000     4.8083E+02    17.8535   3.5122    82.2244
107      0.0000     0.0000E+00    0.0000E+00    1.445000E+07  0.02000  7.331E-03    0   0.8472   age078_m62            0.0000     3.7342E+02    15.8525   3.5181    84.1804
108      0.0000     0.0000E+00    0.0000E+00    2.512000E+07  0.02000  4.206E-03    0   0.8099   age090_m62            0.0000     3.8594E+02    15.9398   3.4368    83.3223
109      0.0000     0.0000E+00    0.0000E+00    4.000000E+07  0.02000  3.373E-03    0   0.7799   age104_m62            0.0000     2.0484E+02    12.2145   3.1781    94.5242
110      0.0000     0.0000E+00    0.0000E+00    5.500000E+07  0.02000  2.747E-03    0   0.7595   age110_m62            0.0000     1.8831E+02    11.4355   3.0788    99.4342
111      0.0000     0.0000E+00    0.0000E+00    1.015200E+08  0.02000  1.878E-03    0   0.7221   age116_m62            0.0000     2.4519E+02    11.4711   2.8891   106.5216
112      0.0000     0.0000E+00    0.0000E+00    1.609000E+08  0.02000  1.378E-03    0   0.6978   age120_m62            0.0000     3.0525E+02    11.8571   2.7118   110.2236
113      0.0000     0.0000E+00    0.0000E+00    2.861200E+08  0.02000  8.869E-04    0   0.6700   age125_m62            0.0000     4.1426E+02    12.6535   2.3135   116.0408
114      0.0000     0.0000E+00    0.0000E+00    5.088000E+08  0.02000  4.834E-04    0   0.6430   age130_m62            0.0000     3.4702E+02    11.2198   1.8796   118.3562
115      0.0000     0.0000E+00    0.0000E+00    9.047900E+08  0.02000  2.312E-04    0   0.6152   age135_m62            0.0000     1.5534E+02     7.3701   1.3113   116.0113
116      0.0000     0.0000E+00    0.0000E+00    1.278050E+09  0.02000  1.387E-04    0   0.5927   age138_m62            0.0000     5.2053E+01     4.5281   0.9742   109.7555
117      0.0000     0.0000E+00    0.0000E+00    1.434000E+09  0.02000  1.168E-04    0   0.5865   age139_m62            0.0000     3.7968E+01     3.9387   0.9578   107.7332
118      0.0000     0.0000E+00    0.0000E+00    2.500000E+09  0.02000  5.505E-05    0   0.5610   age150_m62            0.0000     1.4440E+01     2.6180   0.6001   104.2931
119      0.0000     0.0000E+00    0.0000E+00    4.250000E+09  0.02000  3.070E-05    0   0.5407   age158_m62            0.0000     3.0076E+01     3.9141   0.3074   104.3235
120      0.0005     4.9271E-04    5.1620E-04    6.250000E+09  0.02000  2.104E-05    0   0.5277   age166_m62            0.0000     4.6114E+01     4.9241   0.1758   104.8327
121      0.0000     0.0000E+00    0.0000E+00    7.500000E+09  0.02000  1.770E-05    0   0.5223   age171_m62            0.0000     5.7529E+01     5.4689   0.0871   105.2858
122      0.0001     2.4534E-04    2.4943E-04    1.000000E+10  0.02000  1.297E-05    0   0.5121   age181_m62            0.0000     8.4978E+01     6.5823  -0.0731   105.9403
123      0.0000     0.0000E+00    0.0000E+00    1.300000E+10  0.02000  9.691E-06    0   0.5047   age193_m62            0.0000     1.0677E+02     7.3159  -0.1564   106.3963
124      0.0000     0.0000E+00    0.0000E+00    1.500000E+10  0.02000  8.360E-06    0   0.4999   age201_m62            0.0000     1.2689E+02     7.9355  -0.2284   106.7422
125      0.0002     5.8827E-04    5.7764E-04    1.800000E+10  0.02000  6.911E-06    0   0.4946   age213_m62            0.0000     1.5386E+02     8.6961  -0.3059   107.1821
126      0.0000     0.0000E+00    0.0000E+00    1.000000E+06  0.05000  2.651E-02    0   0.9998   age020_m72            0.0000     1.0062E+03    22.9377   4.0000    86.4233
127      0.0000     0.0000E+00    0.0000E+00    3.160000E+06  0.05000  4.817E-02    0   0.9577   age045_m72            0.0000     5.5361E+02    17.7801   4.0000    88.9820
128      0.0000     0.0000E+00    0.0000E+00    5.010000E+06  0.05000  3.101E-02    0   0.9147   age055_m72            0.0000     3.3593E+02    14.5704   4.0000    86.2780
129      0.0000     0.0000E+00    0.0000E+00    6.610000E+06  0.05000  1.472E-02    0   0.8877   age061_m72            0.0000     5.2082E+02    18.0516   3.7332    80.5853
130      0.0000     0.0000E+00    0.0000E+00    8.710000E+06  0.05000  1.050E-02    0   0.8638   age067_m72            0.0000     4.0732E+02    15.8560   4.0000    83.6796
131      0.0000     0.0000E+00    0.0000E+00    1.000000E+07  0.05000  8.954E-03    0   0.8524   age070_m72            0.0000     4.4952E+02    15.7585   4.0000    88.6226
132      0.0000     0.0000E+00    0.0000E+00    1.445000E+07  0.05000  6.392E-03    0   0.8262   age078_m72            0.0000     3.7972E+02    14.5389   4.0000    89.0605
133      0.0000     0.0000E+00    0.0000E+00    2.512000E+07  0.05000  4.207E-03    0   0.7902   age090_m72            0.0000     2.2134E+02    12.3297   3.9068    88.9941
134      0.0000     0.0000E+00    0.0000E+00    4.000000E+07  0.05000  3.198E-03    0   0.7618   age104_m72            0.0000     1.9006E+02    10.7220   3.3089   100.4441
135      0.0000     0.0000E+00    0.0000E+00    5.500000E+07  0.05000  2.593E-03    0   0.7432   age110_m72            0.0000     2.1661E+02    11.0151   3.1953   103.2324
136      0.0000     0.0000E+00    0.0000E+00    1.015200E+08  0.05000  1.716E-03    0   0.7092   age116_m72            0.0000     2.7613E+02    11.6219   2.9704   107.1431
137      0.0000     0.0000E+00    0.0000E+00    1.609000E+08  0.05000  1.218E-03    0   0.6876   age120_m72            0.0000     3.4211E+02    11.9984   2.6748   111.1352
138      0.0000     0.0000E+00    0.0000E+00    2.861200E+08  0.05000  7.047E-04    0   0.6618   age125_m72            0.0000     3.9655E+02    11.8849   2.1116   116.3506
139      0.0000     0.0000E+00    0.0000E+00    5.088000E+08  0.05000  3.590E-04    0   0.6356   age130_m72            0.0000     2.9429E+02     9.9159   1.5434   118.7787
140      0.0000     0.0000E+00    0.0000E+00    9.047900E+08  0.05000  1.484E-04    0   0.6088   age135_m72            0.0000     6.8502E+01     5.1932   0.8674   109.6957
141      0.0000     0.0000E+00    0.0000E+00    1.278050E+09  0.05000  9.435E-05    0   0.5924   age138_m72            0.0000     4.1845E+01     4.2214   0.4852   105.9564
142      0.0000     0.0000E+00    0.0000E+00    1.434000E+09  0.05000  7.827E-05    0   0.5847   age139_m72            0.0000     3.3688E+01     3.8886   0.5030   105.1678
143      0.0000     0.0000E+00    0.0000E+00    2.500000E+09  0.05000  3.759E-05    0   0.5583   age150_m72            0.0000     4.6264E+01     4.9307   0.1866   104.1741
144      2.6207     3.1329E+00    3.3425E+00    4.250000E+09  0.05000  1.842E-05    0   0.5374   age158_m72            0.0000     8.6039E+01     6.5410  -0.1285   103.9798
145      1.0253     1.8706E+00    1.9467E+00    6.250000E+09  0.05000  1.207E-05    0   0.5242   age166_m72            0.0000     1.3433E+02     8.0153  -0.3731   103.9974
146      0.8896     1.9604E+00    2.0172E+00    7.500000E+09  0.05000  9.993E-06    0   0.5183   age171_m72            0.0000     1.4281E+02     8.2200  -0.4174   103.9926
147      0.0000     0.0000E+00    0.0000E+00    1.000000E+10  0.05000  7.291E-06    0   0.5081   age181_m72            0.0000     1.8310E+02     9.2512  -0.5475   104.1850
148      0.0000     0.0000E+00    0.0000E+00    1.300000E+10  0.05000  5.316E-06    0   0.5018   age193_m72            0.0000     2.5439E+02    10.7856  -0.7441   104.5384
149      0.0000     0.0000E+00    0.0000E+00    1.500000E+10  0.05000  4.497E-06    0   0.4972   age201_m72            0.0000     2.9356E+02    11.5512  -0.8240   105.0295
150      0.0000     0.0000E+00    0.0000E+00    1.800000E+10  0.05000  3.739E-06    0   0.4924   age213_m72            0.0000     3.4625E+02    12.5157  -0.9381   105.4480


## Synthesis Results - Average & Chains ##

# j      x_j: min, <> & last-chain-values for 1 ...  7 chains
  1      0.0000      0.0159      0.0000      0.0000      0.0000      0.0049      0.0000      0.0000      0.0000
  2      0.0000      0.0472      0.0000      0.0393      0.0000      0.0000      0.1438      0.0749      0.1069
  3      0.0000      0.0374      0.0000      0.0000      0.0611      0.0000      0.3898      0.0624      0.1004
  4      0.0000      0.0066      0.0000      0.0000      0.0484      0.0288      0.0000      0.0000      0.0000
  5      0.0000      0.0103      0.0000      0.0000      0.0000      0.0000      0.0000      0.0951      0.0000
  6      0.0000      0.0085      0.0000      0.0000      0.0000      0.0000      0.0000      0.0000      0.0000
  7      0.0000      0.0086      0.0341      0.0000      0.0000      0.0000      0.0000      0.0000      0.0000
  8      0.0000      0.0144      0.0000      0.0000      0.0000      0.0349      0.0000      0.0000      0.0056
  9      0.0000      0.0108      0.0000      0.0000      0.0000      0.0000      0.0000      0.0000      0.0000
 10      0.0000      0.0117      0.0303      0.0000      0.0000      0.0000      0.0000      0.1424      0.0000
 11      0.0000      0.0132      0.0000      0.0000      0.0000      0.0000      0.0000      0.0000      0.0000
 12      0.0000      0.0111      0.0000      0.0000      0.0000      0.0000      0.0000      0.0296      0.0000
 13      0.0000      0.0084      0.0000      0.0000      0.0000      0.0000      0.0000      0.0000      0.0000
 14      0.0000      0.0056      0.0000      0.0000      0.0000      0.0000      0.0000      0.0000      0.0000
 15      0.0000      0.0070      0.0000      0.0000      0.0000      0.0000      0.0000      0.0000      0.0052
 16      0.0000      0.0136      0.0000      0.0000      0.0000      0.0000      0.0000      0.0000      0.0000
 17      0.0000      0.0141      0.0000      0.0000      0.0000      0.0000      0.0051      0.0000      0.0000
 18      0.0000      0.0193      0.0000      0.0000      0.0000      0.0000      0.1142      0.0000      0.0000
 19      0.0000      0.0455      0.0000      0.0000      0.1202      0.0000      0.0000      0.0000      0.0000
 20      0.0000      0.0833      0.0000      0.2363      0.0000      0.0000      0.0000      0.0371      0.0751
 21      0.0000      0.1353      0.0764      0.0000      0.0000      0.2751      0.2733      0.1332      0.2090
 22      0.0000      0.1174      0.0000      0.0000      0.2535      0.2333      0.0190      0.0000      0.0000
 23      0.0000      0.1226      0.0000      0.1125      0.0000      0.0000      0.1558      0.0000      0.0000
 24      0.0007      0.1402      0.0000      0.4286      0.0000      0.0000      0.0000      0.6419      0.2000
 25      0.0070      0.2729      0.8662      0.7180      0.5263      0.3964      0.2017      0.1707      0.6326
 26      0.0000      0.0096      0.0000      0.0000      0.0127      0.1494      0.0000      0.0000      0.0000
 27      0.0000      0.0189      0.0000      0.1215      0.2910      0.0000      0.0205      0.0387      0.0000
 28      0.0000      0.0173      0.0000      0.0000      0.0000      0.0080      0.0200      0.0000      0.0000
 29      0.0000      0.0112      0.0000      0.0000      0.0000      0.0000      0.0000      0.0000      0.0000
 30      0.0000      0.0125      0.0000      0.0000      0.0000      0.0000      0.0000      0.0000      0.0000
 31      0.0000      0.0072      0.0000      0.0000      0.0000      0.0124      0.0000      0.0000      0.0000
 32      0.0000      0.0128      0.0000      0.0735      0.0000      0.0000      0.0866      0.0000      0.0000
 33      0.0000      0.0294      0.0000      0.0000      0.0000      0.0000      0.0000      0.0000      0.0656
 34      0.0000      0.0130      0.0000      0.0000      0.0083      0.0000      0.0000      0.0000      0.0000
 35      0.0000      0.0172      0.0000      0.0000      0.0000      0.0000      0.0000      0.1705      0.0000
 36      0.0000      0.0150      0.1140      0.0000      0.0000      0.2070      0.0000      0.0262      0.0414
 37      0.0000      0.0102      0.0000      0.0000      0.0000      0.0000      0.0000      0.0000      0.0000
 38      0.0000      0.0071      0.0000      0.0000      0.0099      0.0000      0.0000      0.0000      0.0000
 39      0.0000      0.0068      0.0000      0.0000      0.0000      0.0000      0.1711      0.0000      0.0176
 40      0.0000      0.0138      0.0000      0.0000      0.0000      0.0000      0.0000      0.0000      0.0000
 41      0.0000      0.0183      0.0000      0.0000      0.0000      0.0590      0.0000      0.0000      0.0000
 42      0.0000      0.0218      0.0000      0.0000      0.0000      0.0000      0.0000      0.0000      0.0000
 43      0.0000      0.0428      0.0000      0.0000      0.0286      0.0000      0.1001      0.0000      0.0000
 44      0.0000      0.1018      0.0000      0.0000      0.0807      0.0920      0.0000      0.3898      0.0000
 45      0.1145      0.3019      0.1621      0.5607      0.6463      0.4995      0.5970      0.0000      0.1984
 46     13.9054     10.6627     10.8950     10.5437     11.0408     10.8985     10.9003     10.7755     10.6446
 47     16.6344     15.6134     15.9866     15.2996     16.0747     15.7570     15.7929     16.2041     16.6005
 48      0.0055      0.1661      0.0000      0.6883      0.0000      0.1118      0.3340      0.0000      0.1923
 49      0.0000      0.1401      0.0112      0.1374      0.0000      0.3576      0.2113      0.0000      0.0015
 50      0.0000      0.1153      0.1204      0.0000      0.0000      0.2520      0.1146      0.0000      0.0000
 51      0.0000      0.0084      0.0000      0.0000      0.0000      0.0000      0.0177      0.0000      0.0000
 52      0.0000      0.0240      0.0755      0.0000      0.0727      0.0000      0.0000      0.0580      0.0000
 53      0.0000      0.0180      0.0000      0.0000      0.0000      0.0000      0.0000      0.0000      0.0000
 54      0.0000      0.0243      0.0115      0.0000      0.1073      0.0000      0.0000      0.0000      0.0000
 55      0.0000      0.0373      0.0365      0.0000      0.0995      0.0000      0.0000      0.0000      0.0000
 56      0.0000      0.0148      0.0000      0.0000      0.0098      0.0000      0.0873      0.0000      0.0000
 57      0.0000      0.0147      0.0000      0.0489      0.0000      0.0000      0.0000      0.0000      0.0000
 58      0.0000      0.0176      0.0000      0.0000      0.0000      0.0000      0.0000      0.0000      0.0000
 59      0.0000      0.0115      0.0000      0.0000      0.0028      0.0000      0.0000      0.2487      0.0000
 60      0.0000      0.0086      0.0000      0.0000      0.0067      0.0000      0.0000      0.0000      0.0000
 61      0.0000      0.0081      0.0000      0.0000      0.0000      0.0000      0.0205      0.0000      0.0000
 62      0.0000      0.0109      0.0000      0.0000      0.0000      0.0000      0.0000      0.0033      0.0000
 63      0.0000      0.0101      0.0000      0.1086      0.0083      0.0703      0.0000      0.0000      0.0000
 64      0.0000      0.0162      0.0000      0.0000      0.0000      0.0000      0.0000      0.0000      0.0000
 65      0.0000      0.0243      0.0000      0.0000      0.0000      0.0000      0.0000      0.0000      0.0128
 66      0.0000      0.0365      0.0000      0.0429      0.0294      0.0163      0.0000      0.0000      0.0000
 67      0.0000      0.0280      0.1579      0.0000      0.0000      0.0000      0.0000      0.0000      0.1569
 68      0.0000      0.0682      0.0000      0.0000      0.0000      0.0000      0.0000      0.0000      0.0000
 69      0.0000      0.1452      0.5594      0.0410      0.1891      0.0000      0.0000      0.2737      0.0000
 70      0.0000      0.2118      0.7190      0.0071      0.3622      0.7322      0.0000      0.0000      0.1458
 71      0.0000      0.3272      0.0000      0.0426      0.1486      0.0000      0.0890      0.1874      0.0000
 72      0.0318      3.3549      3.9086      1.5142      3.4963      2.5165      3.3225      3.5930      4.2559
 73      7.6042      6.0279      5.0100      6.7042      4.7431      5.3601      4.9372      4.5362      4.9412
 74      1.9313      0.3751      1.1864      0.5418      0.4601      0.6829      0.7264      0.7415      0.0000
 75      0.0287      0.2772      0.0000      0.6137      0.0000      0.4995      0.0000      0.0000      0.2154
 76      0.0000      0.0054      0.0000      0.0000      0.0000      0.0799      0.0000      0.0000      0.0000
 77      0.0000      0.0087      0.0000      0.1482      0.0000      0.0000      0.0000      0.0000      0.0789
 78      0.0000      0.0124      0.1374      0.0000      0.0057      0.0000      0.0036      0.0000      0.0000
 79      0.0000      0.0175      0.0000      0.0000      0.0000      0.0000      0.0000      0.0000      0.0000
 80      0.0000      0.0113      0.0000      0.1405      0.0000      0.0000      0.0000      0.0000      0.0000
 81      0.0000      0.0162      0.0000      0.0000      0.0000      0.0000      0.0000      0.0000      0.0000
 82      0.0000      0.0185      0.0000      0.2178      0.0000      0.0000      0.0000      0.0220      0.0855
 83      0.0000      0.0161      0.0000      0.0000      0.0000      0.0000      0.0423      0.0000      0.0000
 84      0.0000      0.0103      0.0000      0.0000      0.0000      0.0000      0.0000      0.0000      0.0000
 85      0.0000      0.0108      0.0000      0.0013      0.0000      0.0000      0.0463      0.0000      0.0000
 86      0.0000      0.0091      0.0070      0.0000      0.0000      0.0000      0.0000      0.0000      0.2694
 87      0.0000      0.0101      0.0000      0.0000      0.0150      0.0000      0.0000      0.0778      0.0000
 88      0.0000      0.0085      0.0000      0.0000      0.0000      0.0000      0.0000      0.0000      0.0263
 89      0.0000      0.0083      0.0000      0.0000      0.0054      0.0000      0.0117      0.0000      0.0000
 90      0.0000      0.0101      0.0000      0.0000      0.0054      0.0000      0.0000      0.0000      0.0000
 91      0.0000      0.0166      0.0000      0.0000      0.0000      0.0226      0.0000      0.0000      0.0000
 92      0.0000      0.0210      0.0000      0.0000      0.0000      0.1025      0.0000      0.0000      0.0000
 93      0.0000      0.0658      0.0000      0.0000      0.0000      0.0000      0.0000      0.0000      0.0000
 94      0.0000      0.2138      0.0000      0.0000      0.1018      0.1025      0.0000      0.0000      0.0000
 95      0.0000      1.0443      1.8683      0.0000      2.5092      1.4236      0.4450      0.2282      1.1950
 96      0.2689      1.4616      0.8039      3.4242      0.9890      1.7426      1.8865      2.7913      1.7661
 97     46.8846     43.2719     44.8651     43.3409     43.7760     43.9108     45.0050     44.5536     43.8334
 98      6.9963      6.6726      6.2021      7.1584      7.6219      6.8328      6.7893      7.6649      6.6387
 99      0.0000      0.3382      0.0000      0.2152      0.3250      0.5793      0.5182      0.0000      0.4039
100      0.0229      0.2362      0.1398      0.4198      0.0000      0.1873      0.0842      0.1294      0.4645
101      0.0000      0.0081      0.0000      0.0000      0.0000      0.0000      0.0000      0.0000      0.0000
102      0.0000      0.0125      0.0881      0.0000      0.0000      0.1309      0.0455      0.0000      0.0000
103      0.0000      0.0172      0.0882      0.0000      0.0000      0.0000      0.0000      0.0000      0.0000
104      0.0000      0.0199      0.0000      0.0000      0.0000      0.0049      0.0000      0.0000      0.0000
105      0.0000      0.0151      0.0000      0.0000      0.0000      0.0000      0.0000      0.0000      0.0000
106      0.0000      0.0148      0.0000      0.0000      0.0000      0.0000      0.0000      0.0000      0.0000
107      0.0000      0.0174      0.0000      0.0270      0.0000      0.0000      0.0000      0.0000      0.0000
108      0.0000      0.0131      0.0000      0.0000      0.0132      0.0000      0.0000      0.0000      0.0000
109      0.0000      0.0097      0.0000      0.0000      0.0000      0.0000      0.0000      0.0000      0.0000
110      0.0000      0.0094      0.0000      0.0000      0.0000      0.0000      0.0000      0.0000      0.0000
111      0.0000      0.0083      0.0000      0.0000      0.0000      0.0000      0.0000      0.0000      0.0000
112      0.0000      0.0055      0.0000      0.0000      0.0000      0.0000      0.0000      0.0000      0.0000
113      0.0000      0.0046      0.0000      0.0000      0.0000      0.0000      0.0000      0.0000      0.0355
114      0.0000      0.0060      0.0000      0.0000      0.0000      0.0000      0.0000      0.0296      0.0000
115      0.0000      0.0122      0.0000      0.0000      0.0000      0.0000      0.0069      0.0000      0.0000
116      0.0000      0.0198      0.0244      0.0350      0.0000      0.0000      0.0000      0.0028      0.0000
117      0.0000      0.0249      0.0000      0.0000      0.0000      0.0000      0.0120      0.0000      0.0000
118      0.0000      0.0442      0.0000      0.0000      0.0416      0.0209      0.0000      0.0083      0.0000
119      0.0000      0.0677      0.0000      0.0247      0.1699      0.0000      0.0000      0.0000      0.1635
120      0.0005      0.0736      0.0000      0.4066      0.0000      0.0000      0.0167      0.0000      0.0490
121      0.0000      0.0690      0.0037      0.0000      0.0000      0.0091      0.1437      0.0000      0.0000
122      0.0001      0.0596      0.0000      0.2457      0.0000      0.0000      0.0000      0.0000      0.0000
123      0.0000      0.0561      0.0370      0.0000      0.0000      0.0000      0.0000      0.0000      0.0135
124      0.0000      0.0571      0.1929      0.0000      0.0827      0.0000      0.0000      0.0000      0.0168
125      0.0002      3.0816      1.8090      1.9244      2.5088      2.5411      3.0296      2.6932      1.8364
126      0.0000      0.0109      0.0000      0.0000      0.0094      0.0000      0.0000      0.0829      0.0031
127      0.0000      0.0117      0.0000      0.0000      0.0000      0.0000      0.0000      0.0000      0.0510
128      0.0000      0.0189      0.0859      0.0000      0.0000      0.0000      0.0000      0.0000      0.0000
129      0.0000      0.0283      0.0000      0.0000      0.0000      0.0000      0.0000      0.0000      0.0000
130      0.0000      0.0158      0.0000      0.0000      0.0000      0.0000      0.0000      0.0000      0.0000
131      0.0000      0.0123      0.0000      0.0000      0.0000      0.0000      0.0000      0.0000      0.1835
132      0.0000      0.0139      0.0000      0.0000      0.0000      0.0000      0.0000      0.0000      0.0000
133      0.0000      0.0144      0.0000      0.0000      0.0000      0.0000      0.0000      0.0000      0.0366
134      0.0000      0.0087      0.0000      0.0032      0.0000      0.0070      0.0663      0.0000      0.0000
135      0.0000      0.0105      0.0000      0.0000      0.0000      0.0000      0.0170      0.0000      0.0000
136      0.0000      0.0064      0.0000      0.0000      0.0036      0.0000      0.0000      0.0000      0.0000
137      0.0000      0.0055      0.0000      0.0000      0.0000      0.0000      0.0000      0.0000      0.0047
138      0.0000      0.0071      0.0000      0.0000      0.0000      0.0000      0.0337      0.0000      0.0000
139      0.0000      0.0088      0.0000      0.0000      0.0000      0.0000      0.0000      0.0000      0.0000
140      0.0000      0.0188      0.0000      0.0000      0.0000      0.0000      0.0000      0.0000      0.0000
141      0.0000      0.0228      0.0000      0.0000      0.0000      0.0000      0.0118      0.0000      0.0000
142      0.0000      0.0393      0.0000      0.0000      0.0000      0.0000      0.0000      0.0000      0.0000
143      0.0000      0.1444      0.2742      0.0000      0.0000      0.0000      0.0000      0.0000      0.0000
144      2.6207      0.6552      1.0061      1.3589      0.5759      0.8096      1.1214      1.1699      1.0057
145      1.0253      0.4857      0.6177      1.0987      0.4479      0.5527      0.9986      0.3767      1.2706
146      0.8896      0.3381      0.6381      0.3485      0.6368      0.3660      0.0000      0.2685      0.3669
147      0.0000      0.0795      0.0000      0.0000      0.1309      0.2417      0.0000      0.3428      0.2453
148      0.0000      0.0581      0.0000      0.0000      0.0383      0.0000      0.0000      0.0291      0.0717
149      0.0000      0.2501      0.2002      0.0000      0.1858      0.2545      0.0000      0.0399      0.1973
150      0.0000      0.0185      0.0529      0.0000      0.0000      0.0000      0.0000      0.0000      0.0014

# j      m_j: min, <> & last-chain-values for 1 ...  7 chains
  1  0.0000E+00  8.1324E-05  0.0000E+00  0.0000E+00  0.0000E+00  2.5296E-05  0.0000E+00  0.0000E+00  0.0000E+00
  2  0.0000E+00  4.1358E-05  0.0000E+00  3.4917E-05  0.0000E+00  0.0000E+00  1.2735E-04  6.6305E-05  9.5232E-05
  3  0.0000E+00  7.7342E-05  0.0000E+00  0.0000E+00  1.2814E-04  0.0000E+00  8.1461E-04  1.3034E-04  2.1095E-04
  4  0.0000E+00  2.5508E-05  0.0000E+00  0.0000E+00  1.9065E-04  1.1251E-04  0.0000E+00  0.0000E+00  0.0000E+00
  5  0.0000E+00  5.0442E-05  0.0000E+00  0.0000E+00  0.0000E+00  0.0000E+00  0.0000E+00  4.7015E-04  0.0000E+00
  6  0.0000E+00  4.9630E-05  0.0000E+00  0.0000E+00  0.0000E+00  0.0000E+00  0.0000E+00  0.0000E+00  0.0000E+00
  7  0.0000E+00  6.3119E-05  2.5675E-04  0.0000E+00  0.0000E+00  0.0000E+00  0.0000E+00  0.0000E+00  0.0000E+00
  8  0.0000E+00  1.1937E-04  0.0000E+00  0.0000E+00  0.0000E+00  2.9173E-04  0.0000E+00  0.0000E+00  4.7569E-05
  9  0.0000E+00  9.6654E-05  0.0000E+00  0.0000E+00  0.0000E+00  0.0000E+00  0.0000E+00  0.0000E+00  0.0000E+00
 10  0.0000E+00  1.1985E-04  3.1827E-04  0.0000E+00  0.0000E+00  0.0000E+00  0.0000E+00  1.4730E-03  0.0000E+00
 11  0.0000E+00  1.6143E-04  0.0000E+00  0.0000E+00  0.0000E+00  0.0000E+00  0.0000E+00  0.0000E+00  0.0000E+00
 12  0.0000E+00  2.3726E-04  0.0000E+00  0.0000E+00  0.0000E+00  0.0000E+00  0.0000E+00  6.4106E-04  0.0000E+00
 13  0.0000E+00  2.0863E-04  0.0000E+00  0.0000E+00  0.0000E+00  0.0000E+00  0.0000E+00  0.0000E+00  0.0000E+00
 14  0.0000E+00  1.9939E-04  0.0000E+00  0.0000E+00  0.0000E+00  0.0000E+00  0.0000E+00  0.0000E+00  0.0000E+00
 15  0.0000E+00  3.7597E-04  0.0000E+00  0.0000E+00  0.0000E+00  0.0000E+00  0.0000E+00  0.0000E+00  2.8178E-04
 16  0.0000E+00  1.0497E-03  0.0000E+00  0.0000E+00  0.0000E+00  0.0000E+00  0.0000E+00  0.0000E+00  0.0000E+00
 17  0.0000E+00  1.2070E-03  0.0000E+00  0.0000E+00  0.0000E+00  0.0000E+00  4.4422E-04  0.0000E+00  0.0000E+00
 18  0.0000E+00  2.7038E-03  0.0000E+00  0.0000E+00  0.0000E+00  0.0000E+00  1.6113E-02  0.0000E+00  0.0000E+00
 19  0.0000E+00  9.6304E-03  0.0000E+00  0.0000E+00  2.5788E-02  0.0000E+00  0.0000E+00  0.0000E+00  0.0000E+00
 20  0.0000E+00  2.5225E-02  0.0000E+00  7.2540E-02  0.0000E+00  0.0000E+00  0.0000E+00  1.1346E-02  2.3094E-02
 21  0.0000E+00  4.7403E-02  2.7396E-02  0.0000E+00  0.0000E+00  9.6792E-02  9.6708E-02  4.7116E-02  7.4368E-02
 22  0.0000E+00  5.3100E-02  0.0000E+00  0.0000E+00  1.1610E-01  1.0593E-01  8.6957E-03  0.0000E+00  0.0000E+00
 23  0.0000E+00  7.0288E-02  0.0000E+00  6.5351E-02  0.0000E+00  0.0000E+00  9.0137E-02  0.0000E+00  0.0000E+00
 24  4.6163E-04  9.1928E-02  0.0000E+00  2.8467E-01  0.0000E+00  0.0000E+00  0.0000E+00  4.2456E-01  1.3309E-01
 25  5.7808E-03  2.1492E-01  6.9817E-01  5.7293E-01  4.1975E-01  3.1341E-01  1.6037E-01  1.3559E-01  5.0581E-01
 26  0.0000E+00  4.7503E-05  0.0000E+00  0.0000E+00  6.3689E-05  7.4035E-04  0.0000E+00  0.0000E+00  0.0000E+00
 27  0.0000E+00  1.9888E-05  0.0000E+00  1.2934E-04  3.0966E-04  0.0000E+00  2.1717E-05  4.0983E-05  0.0000E+00
 28  0.0000E+00  3.5572E-05  0.0000E+00  0.0000E+00  0.0000E+00  1.6538E-05  4.1491E-05  0.0000E+00  0.0000E+00
 29  0.0000E+00  3.5775E-05  0.0000E+00  0.0000E+00  0.0000E+00  0.0000E+00  0.0000E+00  0.0000E+00  0.0000E+00
 30  0.0000E+00  4.9600E-05  0.0000E+00  0.0000E+00  0.0000E+00  0.0000E+00  0.0000E+00  0.0000E+00  0.0000E+00
 31  0.0000E+00  3.3141E-05  0.0000E+00  0.0000E+00  0.0000E+00  5.7451E-05  0.0000E+00  0.0000E+00  0.0000E+00
 32  0.0000E+00  6.5131E-05  0.0000E+00  3.7931E-04  0.0000E+00  0.0000E+00  4.4540E-04  0.0000E+00  0.0000E+00
 33  0.0000E+00  2.1255E-04  0.0000E+00  0.0000E+00  0.0000E+00  0.0000E+00  0.0000E+00  0.0000E+00  4.8254E-04
 34  0.0000E+00  1.1429E-04  0.0000E+00  0.0000E+00  7.3803E-05  0.0000E+00  0.0000E+00  0.0000E+00  0.0000E+00
 35  0.0000E+00  1.8246E-04  0.0000E+00  0.0000E+00  0.0000E+00  0.0000E+00  0.0000E+00  1.8281E-03  0.0000E+00
 36  0.0000E+00  2.0427E-04  1.5904E-03  0.0000E+00  0.0000E+00  2.8313E-03  0.0000E+00  3.6045E-04  5.7318E-04
 37  0.0000E+00  1.7330E-04  0.0000E+00  0.0000E+00  0.0000E+00  0.0000E+00  0.0000E+00  0.0000E+00  0.0000E+00
 38  0.0000E+00  1.6757E-04  0.0000E+00  0.0000E+00  2.3615E-04  0.0000E+00  0.0000E+00  0.0000E+00  0.0000E+00
 39  0.0000E+00  2.3803E-04  0.0000E+00  0.0000E+00  0.0000E+00  0.0000E+00  6.0793E-03  0.0000E+00  6.2946E-04
 40  0.0000E+00  8.5591E-04  0.0000E+00  0.0000E+00  0.0000E+00  0.0000E+00  0.0000E+00  0.0000E+00  0.0000E+00
 41  0.0000E+00  1.5245E-03  0.0000E+00  0.0000E+00  0.0000E+00  4.9253E-03  0.0000E+00  0.0000E+00  0.0000E+00
 42  0.0000E+00  2.0292E-03  0.0000E+00  0.0000E+00  0.0000E+00  0.0000E+00  0.0000E+00  0.0000E+00  0.0000E+00
 43  0.0000E+00  6.4711E-03  0.0000E+00  0.0000E+00  4.3745E-03  0.0000E+00  1.5272E-02  0.0000E+00  0.0000E+00
 44  0.0000E+00  2.4327E-02  0.0000E+00  0.0000E+00  1.9519E-02  2.2059E-02  0.0000E+00  9.3976E-02  0.0000E+00
 45  3.9928E-02  1.0054E-01  5.5265E-02  1.8921E-01  2.1800E-01  1.6702E-01  2.0071E-01  0.0000E+00  6.7082E-02
 46  5.7780E+00  4.2304E+00  4.4245E+00  4.2388E+00  4.4362E+00  4.3410E+00  4.3659E+00  4.3136E+00  4.2880E+00
 47  9.0590E+00  8.1189E+00  8.5090E+00  8.0616E+00  8.4653E+00  8.2259E+00  8.2907E+00  8.5018E+00  8.7646E+00
 48  3.5587E-03  1.0286E-01  0.0000E+00  4.3188E-01  0.0000E+00  6.9474E-02  2.0879E-01  0.0000E+00  1.2093E-01
 49  0.0000E+00  9.7066E-02  7.9108E-03  9.6425E-02  0.0000E+00  2.4868E-01  1.4774E-01  0.0000E+00  1.0541E-03
 50  0.0000E+00  9.3959E-02  1.0041E-01  0.0000E+00  0.0000E+00  2.0608E-01  9.4240E-02  0.0000E+00  0.0000E+00
 51  0.0000E+00  3.1330E-05  0.0000E+00  0.0000E+00  0.0000E+00  0.0000E+00  6.6958E-05  0.0000E+00  0.0000E+00
 52  0.0000E+00  2.4568E-05  7.9142E-05  0.0000E+00  7.5467E-05  0.0000E+00  0.0000E+00  5.9977E-05  0.0000E+00
 53  0.0000E+00  2.8063E-05  0.0000E+00  0.0000E+00  0.0000E+00  0.0000E+00  0.0000E+00  0.0000E+00  0.0000E+00
 54  0.0000E+00  3.6271E-05  1.7514E-05  0.0000E+00  1.6190E-04  0.0000E+00  0.0000E+00  0.0000E+00  0.0000E+00
 55  0.0000E+00  8.1901E-05  8.2108E-05  0.0000E+00  2.2139E-04  0.0000E+00  0.0000E+00  0.0000E+00  0.0000E+00
 56  0.0000E+00  4.3107E-05  0.0000E+00  0.0000E+00  2.8844E-05  0.0000E+00  2.5664E-04  0.0000E+00  0.0000E+00
 57  0.0000E+00  6.8593E-05  0.0000E+00  2.3137E-04  0.0000E+00  0.0000E+00  0.0000E+00  0.0000E+00  0.0000E+00
 58  0.0000E+00  1.1823E-04  0.0000E+00  0.0000E+00  0.0000E+00  0.0000E+00  0.0000E+00  0.0000E+00  0.0000E+00
 59  0.0000E+00  1.0728E-04  0.0000E+00  0.0000E+00  2.6970E-05  0.0000E+00  0.0000E+00  2.3464E-03  0.0000E+00
 60  0.0000E+00  8.9414E-05  0.0000E+00  0.0000E+00  7.1049E-05  0.0000E+00  0.0000E+00  0.0000E+00  0.0000E+00
 61  0.0000E+00  1.0794E-04  0.0000E+00  0.0000E+00  0.0000E+00  0.0000E+00  2.7468E-04  0.0000E+00  0.0000E+00
 62  0.0000E+00  1.8320E-04  0.0000E+00  0.0000E+00  0.0000E+00  0.0000E+00  0.0000E+00  5.5424E-05  0.0000E+00
 63  0.0000E+00  2.5883E-04  0.0000E+00  2.8150E-03  2.1571E-04  1.8061E-03  0.0000E+00  0.0000E+00  0.0000E+00
 64  0.0000E+00  6.8362E-04  0.0000E+00  0.0000E+00  0.0000E+00  0.0000E+00  0.0000E+00  0.0000E+00  0.0000E+00
 65  0.0000E+00  1.7257E-03  0.0000E+00  0.0000E+00  0.0000E+00  0.0000E+00  0.0000E+00  0.0000E+00  9.2452E-04
 66  0.0000E+00  3.3260E-03  0.0000E+00  3.9552E-03  2.7075E-03  1.4907E-03  0.0000E+00  0.0000E+00  0.0000E+00
 67  0.0000E+00  3.4956E-03  2.0194E-02  0.0000E+00  0.0000E+00  0.0000E+00  0.0000E+00  0.0000E+00  1.9899E-02
 68  0.0000E+00  1.5832E-02  0.0000E+00  0.0000E+00  0.0000E+00  0.0000E+00  0.0000E+00  0.0000E+00  0.0000E+00
 69  0.0000E+00  5.8147E-02  2.2935E-01  1.6657E-02  7.6696E-02  0.0000E+00  0.0000E+00  1.1061E-01  0.0000E+00
 70  0.0000E+00  1.1806E-01  4.1026E-01  4.0257E-03  2.0447E-01  4.0979E-01  0.0000E+00  0.0000E+00  8.2542E-02
 71  0.0000E+00  2.1519E-01  0.0000E+00  2.8370E-02  9.8956E-02  0.0000E+00  5.9090E-02  1.2436E-01  0.0000E+00
 72  2.8844E-02  2.9048E+00  3.4641E+00  1.3285E+00  3.0659E+00  2.1875E+00  2.9043E+00  3.1389E+00  3.7415E+00
 73  8.6984E+00  6.5838E+00  5.6010E+00  7.4199E+00  5.2465E+00  5.8775E+00  5.4440E+00  4.9990E+00  5.4797E+00
 74  2.4649E+00  4.5705E-01  1.4798E+00  6.6899E-01  5.6787E-01  8.3541E-01  8.9367E-01  9.1168E-01  0.0000E+00
 75  4.2102E-02  3.8838E-01  0.0000E+00  8.7142E-01  0.0000E+00  7.0262E-01  0.0000E+00  0.0000E+00  3.0651E-01
 76  0.0000E+00  1.7414E-05  0.0000E+00  0.0000E+00  0.0000E+00  2.6043E-04  0.0000E+00  0.0000E+00  0.0000E+00
 77  0.0000E+00  1.1529E-05  0.0000E+00  1.9850E-04  0.0000E+00  0.0000E+00  0.0000E+00  0.0000E+00  1.0596E-04
 78  0.0000E+00  1.8274E-05  2.0804E-04  0.0000E+00  8.5043E-06  0.0000E+00  5.3598E-06  0.0000E+00  0.0000E+00
 79  0.0000E+00  3.1114E-05  0.0000E+00  0.0000E+00  0.0000E+00  0.0000E+00  0.0000E+00  0.0000E+00  0.0000E+00
 80  0.0000E+00  2.6038E-05  0.0000E+00  3.2667E-04  0.0000E+00  0.0000E+00  0.0000E+00  0.0000E+00  0.0000E+00
 81  0.0000E+00  4.9223E-05  0.0000E+00  0.0000E+00  0.0000E+00  0.0000E+00  0.0000E+00  0.0000E+00  0.0000E+00
 82  0.0000E+00  7.5481E-05  0.0000E+00  9.0165E-04  0.0000E+00  0.0000E+00  0.0000E+00  9.0752E-05  3.5463E-04
 83  0.0000E+00  9.6829E-05  0.0000E+00  0.0000E+00  0.0000E+00  0.0000E+00  2.5646E-04  0.0000E+00  0.0000E+00
 84  0.0000E+00  8.5625E-05  0.0000E+00  0.0000E+00  0.0000E+00  0.0000E+00  0.0000E+00  0.0000E+00  0.0000E+00
 85  0.0000E+00  1.0898E-04  0.0000E+00  1.3707E-05  0.0000E+00  0.0000E+00  4.7124E-04  0.0000E+00  0.0000E+00
 86  0.0000E+00  1.2416E-04  9.8033E-05  0.0000E+00  0.0000E+00  0.0000E+00  0.0000E+00  0.0000E+00  3.7406E-03
 87  0.0000E+00  1.8437E-04  0.0000E+00  0.0000E+00  2.7704E-04  0.0000E+00  0.0000E+00  1.4303E-03  0.0000E+00
 88  0.0000E+00  2.3644E-04  0.0000E+00  0.0000E+00  0.0000E+00  0.0000E+00  0.0000E+00  0.0000E+00  7.4006E-04
 89  0.0000E+00  3.8204E-04  0.0000E+00  0.0000E+00  2.5350E-04  0.0000E+00  5.4410E-04  0.0000E+00  0.0000E+00
 90  0.0000E+00  8.6682E-04  0.0000E+00  0.0000E+00  4.7121E-04  0.0000E+00  0.0000E+00  0.0000E+00  0.0000E+00
 91  0.0000E+00  1.8292E-03  0.0000E+00  0.0000E+00  0.0000E+00  2.4974E-03  0.0000E+00  0.0000E+00  0.0000E+00
 92  0.0000E+00  3.0876E-03  0.0000E+00  0.0000E+00  0.0000E+00  1.5105E-02  0.0000E+00  0.0000E+00  0.0000E+00
 93  0.0000E+00  1.9637E-02  0.0000E+00  0.0000E+00  0.0000E+00  0.0000E+00  0.0000E+00  0.0000E+00  0.0000E+00
 94  0.0000E+00  1.1437E-01  0.0000E+00  0.0000E+00  5.5130E-02  5.5066E-02  0.0000E+00  0.0000E+00  0.0000E+00
 95  0.0000E+00  7.5267E-01  1.3783E+00  0.0000E+00  1.8315E+00  1.0300E+00  3.2375E-01  1.6594E-01  8.7446E-01
 96  2.4486E-01  1.2710E+00  7.1554E-01  3.0171E+00  8.7092E-01  1.5212E+00  1.6561E+00  2.4490E+00  1.5592E+00
 97  5.5634E+01  4.9028E+01  5.2032E+01  4.9759E+01  5.0231E+01  4.9948E+01  5.1478E+01  5.0933E+01  5.0425E+01
 98  1.0646E+01  9.6952E+00  9.2241E+00  1.0539E+01  1.1216E+01  9.9671E+00  9.9589E+00  1.1237E+01  9.7938E+00
 99  0.0000E+00  5.6015E-01  0.0000E+00  3.6112E-01  5.4522E-01  9.6327E-01  8.6653E-01  0.0000E+00  6.7917E-01
100  4.5759E-02  4.5050E-01  2.7278E-01  8.1116E-01  0.0000E+00  3.5862E-01  1.6212E-01  2.4897E-01  8.9940E-01
101  0.0000E+00  1.6966E-05  0.0000E+00  0.0000E+00  0.0000E+00  0.0000E+00  0.0000E+00  0.0000E+00  0.0000E+00
102  0.0000E+00  1.3639E-05  9.8370E-05  0.0000E+00  0.0000E+00  1.4332E-04  5.0164E-05  0.0000E+00  0.0000E+00
103  0.0000E+00  2.0763E-05  1.0915E-04  0.0000E+00  0.0000E+00  0.0000E+00  0.0000E+00  0.0000E+00  0.0000E+00
104  0.0000E+00  3.1602E-05  0.0000E+00  0.0000E+00  0.0000E+00  7.8182E-06  0.0000E+00  0.0000E+00  0.0000E+00
105  0.0000E+00  5.0585E-05  0.0000E+00  0.0000E+00  0.0000E+00  0.0000E+00  0.0000E+00  0.0000E+00  0.0000E+00
106  0.0000E+00  5.3346E-05  0.0000E+00  0.0000E+00  0.0000E+00  0.0000E+00  0.0000E+00  0.0000E+00  0.0000E+00
107  0.0000E+00  8.3942E-05  0.0000E+00  1.3190E-04  0.0000E+00  0.0000E+00  0.0000E+00  0.0000E+00  0.0000E+00
108  0.0000E+00  1.0548E-04  0.0000E+00  0.0000E+00  1.0747E-04  0.0000E+00  0.0000E+00  0.0000E+00  0.0000E+00
109  0.0000E+00  9.3459E-05  0.0000E+00  0.0000E+00  0.0000E+00  0.0000E+00  0.0000E+00  0.0000E+00  0.0000E+00
110  0.0000E+00  1.0904E-04  0.0000E+00  0.0000E+00  0.0000E+00  0.0000E+00  0.0000E+00  0.0000E+00  0.0000E+00
111  0.0000E+00  1.3245E-04  0.0000E+00  0.0000E+00  0.0000E+00  0.0000E+00  0.0000E+00  0.0000E+00  0.0000E+00
112  0.0000E+00  1.1539E-04  0.0000E+00  0.0000E+00  0.0000E+00  0.0000E+00  0.0000E+00  0.0000E+00  0.0000E+00
113  0.0000E+00  1.4556E-04  0.0000E+00  0.0000E+00  0.0000E+00  0.0000E+00  0.0000E+00  0.0000E+00  1.1358E-03
114  0.0000E+00  3.3200E-04  0.0000E+00  0.0000E+00  0.0000E+00  0.0000E+00  0.0000E+00  1.6577E-03  0.0000E+00
115  0.0000E+00  1.3550E-03  0.0000E+00  0.0000E+00  0.0000E+00  0.0000E+00  7.7427E-04  0.0000E+00  0.0000E+00
116  0.0000E+00  3.5276E-03  4.4582E-03  6.3190E-03  0.0000E+00  0.0000E+00  0.0000E+00  5.1065E-04  0.0000E+00
117  0.0000E+00  5.2131E-03  0.0000E+00  0.0000E+00  0.0000E+00  0.0000E+00  2.5321E-03  0.0000E+00  0.0000E+00
118  0.0000E+00  1.8789E-02  0.0000E+00  0.0000E+00  1.7936E-02  8.9138E-03  0.0000E+00  3.5559E-03  0.0000E+00
119  0.0000E+00  4.9741E-02  0.0000E+00  1.8421E-02  1.2647E-01  0.0000E+00  0.0000E+00  0.0000E+00  1.2205E-01
120  5.1620E-04  7.7025E-02  0.0000E+00  4.3130E-01  0.0000E+00  0.0000E+00  1.7656E-02  0.0000E+00  5.2049E-02
121  0.0000E+00  8.4956E-02  4.7135E-03  0.0000E+00  0.0000E+00  1.1192E-02  1.7869E-01  0.0000E+00  0.0000E+00
122  2.4943E-04  9.8233E-02  0.0000E+00  4.1032E-01  0.0000E+00  0.0000E+00  0.0000E+00  0.0000E+00  0.0000E+00
123  0.0000E+00  1.2200E-01  8.2230E-02  0.0000E+00  0.0000E+00  0.0000E+00  0.0000E+00  0.0000E+00  2.9893E-02
124  0.0000E+00  1.4254E-01  4.9290E-01  0.0000E+00  2.0904E-01  0.0000E+00  0.0000E+00  0.0000E+00  4.2698E-02
125  5.7764E-04  9.2060E+00  5.5316E+00  5.8253E+00  7.5903E+00  7.6213E+00  9.1370E+00  8.1178E+00  5.5702E+00
126  0.0000E+00  1.7162E-05  0.0000E+00  0.0000E+00  1.4936E-05  0.0000E+00  0.0000E+00  1.3169E-04  5.0075E-06
127  0.0000E+00  9.6919E-06  0.0000E+00  0.0000E+00  0.0000E+00  0.0000E+00  0.0000E+00  0.0000E+00  4.2951E-05
128  0.0000E+00  2.3259E-05  1.0824E-04  0.0000E+00  0.0000E+00  0.0000E+00  0.0000E+00  0.0000E+00  0.0000E+00
129  0.0000E+00  7.1162E-05  0.0000E+00  0.0000E+00  0.0000E+00  0.0000E+00  0.0000E+00  0.0000E+00  0.0000E+00
130  0.0000E+00  5.4404E-05  0.0000E+00  0.0000E+00  0.0000E+00  0.0000E+00  0.0000E+00  0.0000E+00  0.0000E+00
131  0.0000E+00  4.8838E-05  0.0000E+00  0.0000E+00  0.0000E+00  0.0000E+00  0.0000E+00  0.0000E+00  7.4053E-04
132  0.0000E+00  7.5243E-05  0.0000E+00  0.0000E+00  0.0000E+00  0.0000E+00  0.0000E+00  0.0000E+00  0.0000E+00
133  0.0000E+00  1.1298E-04  0.0000E+00  0.0000E+00  0.0000E+00  0.0000E+00  0.0000E+00  0.0000E+00  2.9144E-04
134  0.0000E+00  8.6694E-05  0.0000E+00  3.2412E-05  0.0000E+00  6.9694E-05  6.6585E-04  0.0000E+00  0.0000E+00
135  0.0000E+00  1.2528E-04  0.0000E+00  0.0000E+00  0.0000E+00  0.0000E+00  2.0519E-04  0.0000E+00  0.0000E+00
136  0.0000E+00  1.1072E-04  0.0000E+00  0.0000E+00  6.3258E-05  0.0000E+00  0.0000E+00  0.0000E+00  0.0000E+00
137  0.0000E+00  1.2883E-04  0.0000E+00  0.0000E+00  0.0000E+00  0.0000E+00  0.0000E+00  0.0000E+00  1.1285E-04
138  0.0000E+00  2.7878E-04  0.0000E+00  0.0000E+00  0.0000E+00  0.0000E+00  1.3325E-03  0.0000E+00  0.0000E+00
139  0.0000E+00  6.4677E-04  0.0000E+00  0.0000E+00  0.0000E+00  0.0000E+00  0.0000E+00  0.0000E+00  0.0000E+00
140  0.0000E+00  3.2204E-03  0.0000E+00  0.0000E+00  0.0000E+00  0.0000E+00  0.0000E+00  0.0000E+00  0.0000E+00
141  0.0000E+00  5.9629E-03  0.0000E+00  0.0000E+00  0.0000E+00  0.0000E+00  3.1231E-03  0.0000E+00  0.0000E+00
142  0.0000E+00  1.2268E-02  0.0000E+00  0.0000E+00  0.0000E+00  0.0000E+00  0.0000E+00  0.0000E+00  0.0000E+00
143  0.0000E+00  8.9511E-02  1.7402E-01  0.0000E+00  0.0000E+00  0.0000E+00  0.0000E+00  0.0000E+00  0.0000E+00
144  3.3425E+00  7.9787E-01  1.2541E+00  1.6769E+00  7.1027E-01  9.8979E-01  1.3787E+00  1.4375E+00  1.2436E+00
145  1.9467E+00  8.8057E-01  1.1462E+00  2.0183E+00  8.2236E-01  1.0058E+00  1.8276E+00  6.8906E-01  2.3387E+00
146  2.0172E+00  7.3206E-01  1.4140E+00  7.6464E-01  1.3963E+00  7.9545E-01  0.0000E+00  5.8664E-01  8.0651E-01
147  0.0000E+00  2.3117E-01  0.0000E+00  0.0000E+00  3.8564E-01  7.0582E-01  0.0000E+00  1.0062E+00  7.2452E-01
148  0.0000E+00  2.2884E-01  0.0000E+00  0.0000E+00  1.5270E-01  0.0000E+00  0.0000E+00  1.1561E-01  2.8698E-01
149  0.0000E+00  1.1543E+00  9.4560E-01  0.0000E+00  8.6843E-01  1.1794E+00  0.0000E+00  1.8581E-01  9.2452E-01
150  0.0000E+00  1.0191E-01  2.9748E-01  0.0000E+00  0.0000E+00  0.0000E+00  0.0000E+00  0.0000E+00  8.0835E-03

# AV, chi2 & Mass for <> & i_chain = 1 ...  7 solutions
AV       0.6097      0.6126      0.6128      0.6107      0.6121      0.6116      0.6129      0.6123      0.6121
chi2 2.4459E+00  2.4940E+00  2.4716E+00  2.4726E+00  2.4745E+00  2.4804E+00  2.4785E+00  2.4771E+00  2.4734E+00
Mass 1.1445E-09  1.2034E-09  1.1759E-09  1.1846E-09  1.1875E-09  1.1970E-09  1.1925E-09  1.1922E-09  1.1844E-09
  28.16                                  [v0_min (km/s) before EX0s...]
  48.74                                  [vd_min (km/s) before EX0s...]


## Synthetic spectrum (Best Model) ##l_obs f_obs f_syn wei
 3070    [Nl_obs]
 3359.00    0.00000   0.38205   -2.000
 3360.00    0.20982   0.33704   -1.000
 3361.00    0.20046   0.32423   -1.000
 3362.00    0.21303   0.34649   -1.000
 3363.00    0.23808   0.39024   -1.000
 3364.00    0.25035   0.43145   -1.000
 3365.00    0.26056   0.44914   -1.000
 3366.00    0.26363   0.44164   -1.000
 3367.00    0.26655   0.42097   -1.000
 3368.00    0.26008   0.39832   -1.000
 3369.00    0.25464   0.38043   -1.000
 3370.00    0.25124   0.36313   -1.000
 3371.00    0.23475   0.34800   -1.000
 3372.00    0.24329   0.34526   -1.000
 3373.00    0.25037   0.36146   -1.000
 3374.00    0.25746   0.39389   -1.000
 3375.00    0.28303   0.43345   -1.000
 3376.00    0.30889   0.46444   -1.000
 3377.00    0.32365   0.47228   -1.000
 3378.00    0.32429   0.45413   -1.000
 3379.00    0.30359   0.42583   -1.000
 3380.00    0.29925   0.40687   -1.000
 3381.00    0.30329   0.40519   -1.000
 3382.00    0.31095   0.41803   -1.000
 3383.00    0.31724   0.43468   -1.000
 3384.00    0.31761   0.44818   -1.000
 3385.00    0.32214   0.46020   -1.000
 3386.00    0.32848   0.46498   -1.000
 3387.00    0.33233   0.45987   -1.000
 3388.00    0.33578   0.45407   -1.000
 3389.00    0.33874   0.45606   -1.000
 3390.00    0.35188   0.46173   -1.000
 3391.00    0.35670   0.46046   -1.000
 3392.00    0.34662   0.44519   -1.000
 3393.00    0.34049   0.42810   -1.000
 3394.00    0.34864   0.42726   -1.000
 3395.00    0.36439   0.44522   -1.000
 3396.00    0.38660   0.47221   -1.000
 3397.00    0.39822   0.49756   -1.000
 3398.00    0.41564   0.51863   -1.000
 3399.00    0.44000   0.53202   -1.000
 3400.00    0.45019   0.53313   -1.000
 3401.00    0.44473   0.52365   -1.000
 3402.00    0.43570   0.50480   -1.000
 3403.00    0.42159   0.48534   -1.000
 3404.00    0.42068   0.47246   -1.000
 3405.00    0.41551   0.46670   -1.000
 3406.00    0.40945   0.46306   -1.000
 3407.00    0.40106   0.45692   -1.000
 3408.00    0.39217   0.45041   -1.000
 3409.00    0.39220   0.45041   -1.000
 3410.00    0.39595   0.45978   -1.000
 3411.00    0.39582   0.46586   -1.000
 3412.00    0.39028   0.45749   -1.000
 3413.00    0.39344   0.43794   -1.000
 3414.00    0.38144   0.42141   -1.000
 3415.00    0.37721   0.42271   -1.000
 3416.00    0.38794   0.43944   -1.000
 3417.00    0.40312   0.46276   -1.000
 3418.00    0.40715   0.48650   -1.000
 3419.00    0.43534   0.50794   -1.000
 3420.00    0.45176   0.52240   -1.000
 3421.00    0.45879   0.52215   -1.000
 3422.00    0.45118   0.50444   -1.000
 3423.00    0.43992   0.48242   -1.000
 3424.00    0.43563   0.47274   -1.000
 3425.00    0.43550   0.47619   -1.000
 3426.00    0.44824   0.48298   -1.000
 3427.00    0.45988   0.49138   -1.000
 3428.00    0.45994   0.50825   -1.000
 3429.00    0.46676   0.53257   -1.000
 3430.00    0.49443   0.54801   -1.000
 3431.00    0.48970   0.53874   -1.000
 3432.00    0.47834   0.51224   -1.000
 3433.00    0.45455   0.48996   -1.000
 3434.00    0.45252   0.48926   -1.000
 3435.00    0.47525   0.50422   -1.000
 3436.00    0.47156   0.51178   -1.000
 3437.00    0.45875   0.50179   -1.000
 3438.00    0.43914   0.47900   -1.000
 3439.00    0.41342   0.44677   -1.000
 3440.00    0.39936   0.41054  267.527
 3441.00    0.38095   0.38036  278.170
 3442.00    0.37033   0.36605  278.503
 3443.00    0.37100   0.36958  277.296
 3444.00    0.38068   0.38477  266.151
 3445.00    0.39745   0.40411  251.520
 3446.00    0.42296   0.42841  237.590
 3447.00    0.43767   0.45853   -1.000
 3448.00    0.45252   0.48828   -1.000
 3449.00    0.47516   0.51227   -1.000
 3450.00    0.49345   0.52202   -1.000
 3451.00    0.49931   0.51066   -1.000
 3452.00    0.47974   0.48971   -1.000
 3453.00    0.48287   0.47847  913.315
 3454.00    0.47496   0.48287   -1.000
 3455.00    0.48936   0.49444   -1.000
 3456.00    0.49154   0.49813   -1.000
 3457.00    0.49280   0.48759   -1.000
 3458.00    0.47447   0.46842   -1.000
 3459.00    0.46513   0.44994   -1.000
 3460.00    0.45038   0.43530   -1.000
 3461.00    0.44547   0.42971   -1.000
 3462.00    0.45821   0.44138   -1.000
 3463.00    0.47146   0.46466   -1.000
 3464.00    0.49457   0.48162   -1.000
 3465.00    0.49919   0.48144   -1.000
 3466.00    0.50404   0.47561   -1.000
 3467.00    0.50614   0.48051   -1.000
 3468.00    0.50923   0.49883   -1.000
 3469.00    0.52072   0.52083  913.315
 3470.00    0.53032   0.53292   -1.000
 3471.00    0.53888   0.52738   -1.000
 3472.00    0.52584   0.50725   -1.000
 3473.00    0.50294   0.47643   -1.000
 3474.00    0.47529   0.44318   -1.000
 3475.00    0.45141   0.41749   -1.000
 3476.00    0.43062   0.40958   -1.000
 3477.00    0.43453   0.42569  228.779
 3478.00    0.46054   0.45577   -1.000
 3479.00    0.48676   0.48381  913.315
 3480.00    0.52092   0.50257   -1.000
 3481.00    0.53148   0.50886   -1.000
 3482.00    0.52547   0.50281   -1.000
 3483.00    0.52275   0.49144   -1.000
 3484.00    0.51078   0.48413   -1.000
 3485.00    0.52556   0.49123   -1.000
 3486.00    0.53729   0.51095   -1.000
 3487.00    0.55539   0.52526   -1.000
 3488.00    0.56029   0.51861   -1.000
 3489.00    0.53365   0.49243   -1.000
 3490.00    0.49513   0.46345   -1.000
 3491.00    0.46784   0.44949   -1.000
 3492.00    0.46468   0.45369   -1.000
 3493.00    0.48733   0.46529   -1.000
 3494.00    0.50175   0.47301   -1.000
 3495.00    0.49490   0.47025   -1.000
 3496.00    0.48320   0.45990   -1.000
 3497.00    0.48853   0.45753   -1.000
 3498.00    0.49799   0.47235   -1.000
 3499.00    0.52617   0.49792   -1.000
 3500.00    0.55586   0.51858   -1.000
 3501.00    0.55677   0.52930   -1.000
 3502.00    0.57432   0.53869   -1.000
 3503.00    0.58268   0.54690   -1.000
 3504.00    0.58590   0.54649   -1.000
 3505.00    0.57444   0.53532   -1.000
 3506.00    0.56506   0.52041   -1.000
 3507.00    0.56959   0.51235   -1.000
 3508.00    0.56712   0.51115   -1.000
 3509.00    0.56553   0.50799   -1.000
 3510.00    0.54803   0.49964   -1.000
 3511.00    0.53393   0.48927   -1.000
 3512.00    0.51673   0.47705   -1.000
 3513.00    0.50039   0.46206   -1.000
 3514.00    0.49390   0.45309   -1.000
 3515.00    0.49812   0.46456   -1.000
 3516.00    0.51901   0.49960   -1.000
 3517.00    0.55821   0.53942   -1.000
 3518.00    0.58173   0.55992   -1.000
 3519.00    0.58532   0.55036   -1.000
 3520.00    0.55525   0.52258   -1.000
 3521.00    0.51688   0.49367   -1.000
 3522.00    0.50342   0.47059   -1.000
 3523.00    0.47518   0.44984   -1.000
 3524.00    0.46182   0.42752   -1.000
 3525.00    0.44726   0.41065   -1.000
 3526.00    0.44281   0.41453   -1.000
 3527.00    0.46268   0.44150   -1.000
 3528.00    0.49606   0.48072   -1.000
 3529.00    0.52678   0.51528   -1.000
 3530.00    0.55060   0.53359   -1.000
 3531.00    0.54979   0.53480   -1.000
 3532.00    0.53943   0.52723   -1.000
 3533.00    0.54179   0.52211   -1.000
 3534.00    0.55275   0.52504   -1.000
 3535.00    0.56941   0.53280   -1.000
 3536.00    0.56476   0.54247   -1.000
 3537.00    0.56907   0.55513   -1.000
 3538.00    0.56823   0.57066   -1.000
 3539.00    0.58438   0.58321  913.315
 3540.00    0.58175   0.58359   -1.000
 3541.00    0.56918   0.57340   -1.000
 3542.00    0.56299   0.56587   -1.000
 3543.00    0.56737   0.56990   -1.000
 3544.00    0.57132   0.58033   -1.000
 3545.00    0.56498   0.58593   -1.000
 3546.00    0.56442   0.58205   -1.000
 3547.00    0.55967   0.57275   -1.000
 3548.00    0.55595   0.56615   -1.000
 3549.00    0.55992   0.56704   -1.000
 3550.00    0.55525   0.57205   -1.000
 3551.00    0.55152   0.57288   -1.000
 3552.00    0.54121   0.56269   -1.000
 3553.00    0.53122   0.54428   -1.000
 3554.00    0.52121   0.52978   -1.000
 3555.00    0.51574   0.52911   -1.000
 3556.00    0.51779   0.53790   -1.000
 3557.00    0.52982   0.54556   -1.000
 3558.00    0.52909   0.54667   -1.000
 3559.00    0.51565   0.54394   -1.000
 3560.00    0.51090   0.54506   -1.000
 3561.00    0.51828   0.55412   -1.000
 3562.00    0.53167   0.56483   -1.000
 3563.00    0.53749   0.55962   -1.000
 3564.00    0.52202   0.52710   -1.000
 3565.00    0.48276   0.48060  225.831
 3566.00    0.44753   0.44938  235.135
 3567.00    0.43566   0.44462  232.282
 3568.00    0.44078   0.44814  231.008
 3569.00    0.43900   0.44089  239.041
 3570.00    0.42020   0.42748  243.395
 3571.00    0.42919   0.42407  235.616
 3572.00    0.44623   0.43605  225.022
 3573.00    0.45883   0.45389   -1.000
 3574.00    0.48069   0.46790   -1.000
 3575.00    0.48617   0.47738   -1.000
 3576.00    0.49353   0.48479   -1.000
 3577.00    0.48270   0.48618  913.315
 3578.00    0.47821   0.47729  913.315
 3579.00    0.45958   0.45473  233.409
 3580.00    0.42964   0.42378  252.141
 3581.00    0.40218   0.39720  265.900
 3582.00    0.38292   0.38708  267.471
 3583.00    0.38778   0.39336  268.568
 3584.00    0.38897   0.39680  275.449
 3585.00    0.37861   0.38694  284.589
 3586.00    0.36254   0.37303  288.538
 3587.00    0.36899   0.36942  273.715
 3588.00    0.38974   0.38504  259.104
 3589.00    0.40650   0.41858  246.599
 3590.00    0.43932   0.45981   -1.000
 3591.00    0.47764   0.49508   -1.000
 3592.00    0.51220   0.51287  199.472
 3593.00    0.52090   0.51541  199.163
 3594.00    0.52043   0.51882  195.816
 3595.00    0.53417   0.53485  189.508
 3596.00    0.55359   0.55944  180.233
 3597.00    0.57170   0.57956  175.014
 3598.00    0.58965   0.59111  170.431
 3599.00    0.60096   0.59861  167.660
 3600.00    0.61233   0.59967  169.755
 3601.00    0.60170   0.58394  178.059
 3602.00    0.57774   0.55417   -1.000
 3603.00    0.54693   0.52404   -1.000
 3604.00    0.52084   0.50541   -1.000
 3605.00    0.51106   0.50056  201.243
 3606.00    0.51830   0.50027   -1.000
 3607.00    0.51160   0.49321   -1.000
 3608.00    0.50644   0.47664   -1.000
 3609.00    0.48367   0.46261   -1.000
 3610.00    0.47232   0.46435  210.814
 3611.00    0.48342   0.48221  204.501
 3612.00    0.50887   0.50315  197.190
 3613.00    0.52591   0.51926  192.542
 3614.00    0.53215   0.53564  189.069
 3615.00    0.54925   0.55434  182.097
 3616.00    0.56298   0.55766  182.619
 3617.00    0.54658   0.53082   -1.000
 3618.00    0.49412   0.48508  218.243
 3619.00    0.46088   0.45402   22.243
 3620.00    0.46453   0.46120  208.979
 3621.00    0.50616   0.49844  190.404
 3622.00    0.55320   0.53950  179.621
 3623.00    0.57957   0.56690  175.407
 3624.00    0.58326   0.58503  173.276
 3625.00    0.57654   0.60949   -1.000
 3626.00    0.61929   0.64164   -1.000
 3627.00    0.65681   0.66824  157.460
 3628.00    0.65011   0.66996   -1.000
 3629.00    0.61780   0.63528   -1.000
 3630.00    0.56553   0.57197  191.126
 3631.00    0.51126   0.51342  207.021
 3632.00    0.47757   0.48947  209.239
 3633.00    0.49156   0.49971  202.610
 3634.00    0.50983   0.52298  195.404
 3635.00    0.52489   0.54219   -1.000
 3636.00    0.54765   0.55599  183.724
 3637.00    0.57267   0.57338  175.014
 3638.00    0.58910   0.59858  167.132
 3639.00    0.61445   0.62389  161.556
 3640.00    0.63411   0.63874  161.455
 3641.00    0.62863   0.63611  165.613
 3642.00    0.60775   0.61696  171.246
 3643.00    0.58683   0.59063  180.661
 3644.00    0.55479   0.56630  185.865
 3645.00    0.54129   0.54701  189.006
 3646.00    0.54127   0.53095  191.886
 3647.00    0.51906   0.51720  195.437
 3648.00    0.51618   0.51171  195.535
 3649.00    0.52144   0.51811  190.108
 3650.00    0.54510   0.53685  182.368
 3651.00    0.56784   0.56522  173.485
 3652.00    0.59712   0.59733  166.218
 3653.00    0.61845   0.62364  162.182
 3654.00    0.62699   0.64034  159.956
 3655.00    0.63828   0.65179  159.451
 3656.00    0.64514   0.66366   -1.000
 3657.00    0.65485   0.67780   -1.000
 3658.00    0.67411   0.68852  153.252
 3659.00    0.68170   0.69364  153.479
 3660.00    0.67893   0.69382  153.458
 3661.00    0.68621   0.68596  155.205
 3662.00    0.66719   0.66935  156.867
 3663.00    0.64882   0.65210  159.592
 3664.00    0.63909   0.64412  160.778
 3665.00    0.63855   0.64632  158.750
 3666.00    0.64579   0.65032  158.897
 3667.00    0.64396   0.64677  162.341
 3668.00    0.63152   0.63319  164.086
 3669.00    0.61286   0.61752  168.224
 3670.00    0.60333   0.61468  167.031
 3671.00    0.62072   0.62969  160.624
 3672.00    0.65016   0.65058  157.455
 3673.00    0.66138   0.66427  156.954
 3674.00    0.66250   0.66769  156.927
 3675.00    0.65310   0.66083  157.297
 3676.00    0.64953   0.64250  162.298
 3677.00    0.62828   0.61625  167.356
 3678.00    0.59363   0.58991  172.431
 3679.00    0.58449   0.57176  176.807
 3680.00    0.58156   0.56737  176.218
 3681.00    0.59091   0.57655  171.507
 3682.00    0.61190   0.59275   -1.000
 3683.00    0.61396   0.60612  165.053
 3684.00    0.62609   0.60666   -1.000
 3685.00    0.60767   0.58941   -1.000
 3686.00    0.57968   0.56245   -1.000
 3687.00    0.55571   0.54526  186.719
 3688.00    0.56176   0.55142  181.286
 3689.00    0.58507   0.58154  169.114
 3690.00    0.61681   0.62207  157.899
 3691.00    0.65179   0.65456  153.233
 3692.00    0.66798   0.66538  154.526
 3693.00    0.66302   0.65519  158.911
 3694.00    0.64854   0.64024  161.034
 3695.00    0.64431   0.63320  160.262
 3696.00    0.64392   0.63479  158.817
 3697.00    0.65130   0.64338  156.859
 3698.00    0.66992   0.66216  151.623
 3699.00    0.69773   0.68589  147.801
 3700.00    0.72146   0.70249  145.863
 3701.00    0.72405   0.69996   -1.000
 3702.00    0.69444   0.67035   -1.000
 3703.00    0.64412   0.61722   -1.000
 3704.00    0.57886   0.55991   -1.000
 3705.00    0.54505   0.51831   -1.000
 3706.00    0.53381   0.50149   -1.000
 3707.00    0.53429   0.50389   -1.000
 3708.00    0.54568   0.51436   -1.000
 3709.00    0.55237   0.52905   -1.000
 3710.00    0.57644   0.54942   -1.000
 3711.00    0.60153   0.57662   -1.000
 3712.00    0.64253   0.61128   -1.000
 3713.00    0.68595   0.64933   -1.000
 3714.00    0.71159   0.67965   -1.000
 3715.00    0.72409   0.69175   -1.000
 3716.00    0.71337   0.68444   -1.000
 3717.00    0.68977   0.65872   -1.000
 3718.00    0.64678   0.61090   -1.000
 3719.00    0.57638   0.54292   -1.000
 3720.00    0.50516   0.47167   -1.000
 3721.00    0.46153   0.42835   22.694
 3722.00    0.46322   0.43366   -1.000
 3723.00    0.51450   0.47967   -1.000
 3724.00    0.58142   0.54309   -1.000
 3725.00    0.62968   0.59358   -1.000
 3726.00    0.64458   0.61062   -1.000
 3727.00    0.62402   0.60361   -1.000
 3728.00    0.60750   0.59707  169.441
 3729.00    0.61157   0.59988  166.534
 3730.00    0.62262   0.60063   -1.000
 3731.00    0.59773   0.58201   -1.000
 3732.00    0.56121   0.53304   -1.000
 3733.00    0.50965   0.46739   22.279
 3734.00    0.44651   0.40841   24.991
 3735.00    0.40436   0.37459   25.908
 3736.00    0.40378   0.37729   24.589
 3737.00    0.43687   0.41613   22.260
 3738.00    0.48381   0.47730  196.647
 3739.00    0.55219   0.54389  176.911
 3740.00    0.60175   0.59579  166.752
 3741.00    0.62140   0.61695  165.960
 3742.00    0.61482   0.60374  172.671
 3743.00    0.58686   0.56894   -1.000
 3744.00    0.55301   0.52961   -1.000
 3745.00    0.51350   0.49810   -1.000
 3746.00    0.49497   0.47655   -1.000
 3747.00    0.47700   0.45350   22.595
 3748.00    0.44749   0.42493   24.071
 3749.00    0.42270   0.40615   24.318
 3750.00    0.43522   0.41610   -1.000
 3751.00    0.49553   0.46059   -1.000
 3752.00    0.56340   0.52419   -1.000
 3753.00    0.62241   0.58946   -1.000
 3754.00    0.67371   0.64410   -1.000
 3755.00    0.70130   0.67150   -1.000
 3756.00    0.69414   0.65865   -1.000
 3757.00    0.63842   0.61173   -1.000
 3758.00    0.56230   0.55723  198.302
 3759.00    0.52728   0.52816  197.101
 3760.00    0.53730   0.53326  184.256
 3761.00    0.57248   0.55472   -1.000
 3762.00    0.59612   0.57089   -1.000
 3763.00    0.60097   0.57562   -1.000
 3764.00    0.59985   0.57619   -1.000
 3765.00    0.61300   0.57456   -1.000
 3766.00    0.60865   0.56721   -1.000
 3767.00    0.59233   0.55810   -1.000
 3768.00    0.59156   0.55184   -1.000
 3769.00    0.59696   0.54771   -1.000
 3770.00    0.59572   0.54561   -1.000
 3771.00    0.60652   0.55592   -1.000
 3772.00    0.62345   0.58392   -1.000
 3773.00    0.65912   0.61760   -1.000
 3774.00    0.68005   0.64175   -1.000
 3775.00    0.68338   0.65197   -1.000
 3776.00    0.68620   0.65561   -1.000
 3777.00    0.68201   0.66185  153.493
 3778.00    0.68646   0.67546  151.304
 3779.00    0.69786   0.69486  146.131
 3780.00    0.72322   0.71493  142.758
 3781.00    0.74230   0.72901  141.849
 3782.00    0.73329   0.73503  140.987
 3783.00    0.74038   0.73603  141.091
 3784.00    0.73463   0.72774  144.440
 3785.00    0.71486   0.70128  152.287
 3786.00    0.66870   0.66213  163.897
 3787.00    0.62854   0.62410  171.988
 3788.00    0.60651   0.59706  175.056
 3789.00    0.59215   0.58741  174.857
 3790.00    0.59626   0.59297  171.654
 3791.00    0.61071   0.60263  169.926
 3792.00    0.61786   0.60407  172.658
 3793.00    0.60992   0.58968   -1.000
 3794.00    0.58402   0.56496   -1.000
 3795.00    0.55697   0.53917   -1.000
 3796.00    0.53772   0.51350   -1.000
 3797.00    0.51705   0.48470   -1.000
 3798.00    0.49217   0.46296   -1.000
 3799.00    0.50036   0.47022   -1.000
 3800.00    0.54410   0.51321   -1.000
 3801.00    0.59334   0.57343   -1.000
 3802.00    0.63020   0.62855  161.222
 3803.00    0.65666   0.66515  157.729
 3804.00    0.67765   0.68062  156.891
 3805.00    0.67964   0.67551  159.395
 3806.00    0.65508   0.65702  165.597
 3807.00    0.62721   0.64337  168.756
 3808.00    0.62822   0.64844   -1.000
 3809.00    0.65230   0.66953  157.688
 3810.00    0.67086   0.69042  156.034
 3811.00    0.67370   0.69329  159.223
 3812.00    0.66416   0.67033  168.027
 3813.00    0.62242   0.62998  178.539
 3814.00    0.57903   0.58743  189.245
 3815.00    0.54401   0.55878  197.803
 3816.00    0.53143   0.55505   -1.000
 3817.00    0.55747   0.56811  186.541
 3818.00    0.57764   0.57466  189.981
 3819.00    0.54078   0.55637  203.713
 3820.00    0.49816   0.52743   -1.000
 3821.00    0.49199   0.51663   -1.000
 3822.00    0.51231   0.52778  199.301
 3823.00    0.53443   0.53739  201.574
 3824.00    0.51191   0.52334  219.674
 3825.00    0.46359   0.49366   23.361
 3826.00    0.43979   0.46977   23.857
 3827.00    0.43928   0.45940   23.635
 3828.00    0.45177   0.46022   23.248
 3829.00    0.45394   0.46679   22.865
 3830.00    0.45618   0.46980   23.167
 3831.00    0.45301   0.45914   24.249
 3832.00    0.41759   0.43455   26.228
 3833.00    0.39642   0.40407   26.999
 3834.00    0.39215   0.38311   26.434
 3835.00    0.40644   0.37998   25.346
 3836.00    0.42151   0.38980   24.804
 3837.00    0.42016   0.40127   25.362
 3838.00    0.40930   0.40711   25.981
 3839.00    0.40545   0.41311   25.490
 3840.00    0.41442   0.43139   24.005
 3841.00    0.45870   0.47010  217.602
 3842.00    0.50740   0.52226  196.638
 3843.00    0.55978   0.57226  184.295
 3844.00    0.58053   0.60570   -1.000
 3845.00    0.57806   0.62026   -1.000
 3846.00    0.58128   0.62764   -1.000
 3847.00    0.59395   0.63504   -1.000
 3848.00    0.59074   0.63522   -1.000
 3849.00    0.56605   0.62519   -1.000
 3850.00    0.55077   0.61533   -1.000
 3851.00    0.55403   0.61817   -1.000
 3852.00    0.56734   0.63268   -1.000
 3853.00    0.57193   0.64426   -1.000
 3854.00    0.57024   0.64112   -1.000
 3855.00    0.55148   0.62508   -1.000
 3856.00    0.53944   0.60580   -1.000
 3857.00    0.52264   0.58502   -1.000
 3858.00    0.50130   0.55938   22.121
 3859.00    0.47211   0.53680   23.537
 3860.00    0.45704   0.53456   22.967
 3861.00    0.48703   0.56097   -1.000
 3862.00    0.54508   0.60532   -1.000
 3863.00    0.58833   0.64188   -1.000
 3864.00    0.60491   0.65267   -1.000
 3865.00    0.59952   0.64620   -1.000
 3866.00    0.58696   0.63892   -1.000
 3867.00    0.57897   0.63635   -1.000
 3868.00    0.56411   0.63372   -1.000
 3869.00    0.54336   0.62422   -1.000
 3870.00    0.51796   0.60358   -1.000
 3871.00    0.48773   0.57819   22.406
 3872.00    0.48526   0.56006   -1.000
 3873.00    0.51263   0.56266   -1.000
 3874.00    0.55818   0.58897   -1.000
 3875.00    0.60149   0.61976  172.231
 3876.00    0.61201   0.62739  177.967
 3877.00    0.57922   0.60543   -1.000
 3878.00    0.53690   0.57789   -1.000
 3879.00    0.51643   0.56727   -1.000
 3880.00    0.52038   0.57139   -1.000
 3881.00    0.51155   0.57883   -1.000
 3882.00    0.49935   0.58216   -1.000
 3883.00    0.52430   0.58520   -1.000
 3884.00    0.58165   0.58559  177.270
 3885.00    0.59855   0.56803   -1.000
 3886.00    0.56889   0.53233   -1.000
 3887.00    0.55067   0.49491   -1.000
 3888.00    0.54915   0.47351   -1.000
 3889.00    0.55453   0.48034   -1.000
 3890.00    0.58502   0.51588   -1.000
 3891.00    0.63993   0.56950   -1.000
 3892.00    0.68523   0.61913   -1.000
 3893.00    0.70570   0.64337   -1.000
 3894.00    0.69638   0.64467   -1.000
 3895.00    0.69060   0.64370   -1.000
 3896.00    0.69806   0.65286   -1.000
 3897.00    0.71395   0.66633   -1.000
 3898.00    0.72018   0.67376   -1.000
 3899.00    0.70943   0.67384   -1.000
 3900.00    0.70600   0.67454   -1.000
 3901.00    0.71853   0.67939   -1.000
 3902.00    0.71325   0.68093   -1.000
 3903.00    0.69990   0.67298   -1.000
 3904.00    0.68886   0.65615   -1.000
 3905.00    0.65866   0.63952   -1.000
 3906.00    0.63668   0.63787  161.356
 3907.00    0.67836   0.65918   -1.000
 3908.00    0.72362   0.69493   -1.000
 3909.00    0.75270   0.72789   -1.000
 3910.00    0.77639   0.74862   -1.000
 3911.00    0.78302   0.76088   -1.000
 3912.00    0.78847   0.76816  134.872
 3913.00    0.77790   0.76835  136.541
 3914.00    0.76767   0.75945  139.423
 3915.00    0.75488   0.74622  142.726
 3916.00    0.74858   0.73503  144.491
 3917.00    0.73194   0.72431  146.428
 3918.00    0.72550   0.70864  150.798
 3919.00    0.70014   0.68457   -1.000
 3920.00    0.65906   0.65688  165.154
 3921.00    0.62881   0.63684  168.421
 3922.00    0.62468   0.63316  166.763
 3923.00    0.63987   0.64252  163.625
 3924.00    0.64446   0.64947  165.044
 3925.00    0.62832   0.64199  173.541
 3926.00    0.59720   0.61394  190.603
 3927.00    0.54310   0.56720   -1.000
 3928.00    0.47237   0.50965   24.732
 3929.00    0.41490   0.44893   29.004
 3930.00    0.35721   0.38791   33.929
 3931.00    0.30185   0.32358   40.169
 3932.00    0.25307   0.26074   46.977
 3933.00    0.21732   0.21511   51.261
 3934.00    0.21034   0.20137   49.017
 3935.00    0.23208   0.22598   42.472
 3936.00    0.27586   0.28235   35.093
 3937.00    0.33627   0.35396   28.811
 3938.00    0.39930   0.42944   24.225
 3939.00    0.46168   0.49676   -1.000
 3940.00    0.51303   0.54751   -1.000
 3941.00    0.54154   0.57996   -1.000
 3942.00    0.55439   0.59317   -1.000
 3943.00    0.55747   0.59642   -1.000
 3944.00    0.56642   0.60605   -1.000
 3945.00    0.59895   0.63079   -1.000
 3946.00    0.65294   0.66228  153.837
 3947.00    0.68715   0.68472  152.324
 3948.00    0.69689   0.69579  151.231
 3949.00    0.71108   0.70649  145.552
 3950.00    0.74292   0.72108   -1.000
 3951.00    0.76295   0.72954   -1.000
 3952.00    0.74589   0.72943  143.709
 3953.00    0.74558   0.73320  141.050
 3954.00    0.76677   0.74195   -1.000
 3955.00    0.77852   0.74348   -1.000
 3956.00    0.74913   0.73431  144.329
 3957.00    0.73188   0.72338  146.606
 3958.00    0.73471   0.71990  143.880
 3959.00    0.73590   0.71506   -1.000
 3960.00    0.70213   0.68419   -1.000
 3961.00    0.62851   0.62861  184.954
 3962.00    0.55126   0.57327   -1.000
 3963.00    0.51140   0.53165   -1.000
 3964.00    0.48129   0.49777   23.267
 3965.00    0.42920   0.45034   27.332
 3966.00    0.36426   0.38071   33.763
 3967.00    0.29363   0.30363   41.300
 3968.00    0.24079   0.24598   45.548
 3969.00    0.22963   0.22902   42.183
 3970.00    0.26481   0.25669   34.711
 3971.00    0.32572   0.31704   28.514
 3972.00    0.39138   0.39153   23.858
 3973.00    0.46053   0.46540  205.918
 3974.00    0.53213   0.53334  181.869
 3975.00    0.59910   0.59297  163.900
 3976.00    0.66247   0.64468  151.104
 3977.00    0.71448   0.69222   -1.000
 3978.00    0.75104   0.73696  134.823
 3979.00    0.80202   0.77598   -1.000
 3980.00    0.83951   0.80002   -1.000
 3981.00    0.84797   0.80539   -1.000
 3982.00    0.83302   0.79996   -1.000
 3983.00    0.81561   0.79576  128.590
 3984.00    0.83546   0.80316   -1.000
 3985.00    0.85241   0.81970   -1.000
 3986.00    0.86725   0.83786   -1.000
 3987.00    0.88666   0.85641   -1.000
 3988.00    0.90068   0.87071   -1.000
 3989.00    0.90885   0.87612   -1.000
 3990.00    0.90225   0.87785  117.631
 3991.00    0.90834   0.88410  114.834
 3992.00    0.93332   0.89634   -1.000
 3993.00    0.94434   0.90737   -1.000
 3994.00    0.94280   0.90767   -1.000
 3995.00    0.92493   0.89350   -1.000
 3996.00    0.89106   0.87189  121.256
 3997.00    0.87178   0.85809  122.237
 3998.00    0.87740   0.86276  119.366
 3999.00    0.90829   0.88515  113.770
 4000.00    0.94841   0.91309   -1.000
 4001.00    0.97376   0.93582   -1.000
 4002.00    0.99636   0.94733   -1.000
 4003.00    1.00156   0.94008   -1.000
 4004.00    0.95762   0.90830   -1.000
 4005.00    0.89116   0.86665  122.569
 4006.00    0.85778   0.84754  121.406
 4007.00    0.89512   0.86496   -1.000
 4008.00    0.94248   0.90273   -1.000
 4009.00    0.97497   0.93560   -1.000
 4010.00    0.99302   0.95397   -1.000
 4011.00    1.00000   0.96146   -1.000
 4012.00    0.99437   0.96315   -1.000
 4013.00    0.99968   0.96494   -1.000
 4014.00    1.00186   0.96954   -1.000
 4015.00    1.00732   0.97388   -1.000
 4016.00    1.00320   0.97359  106.828
 4017.00    0.99882   0.97012  108.170
 4018.00    0.98830   0.97138  107.590
 4019.00    1.00320   0.97862  105.875
 4020.00    1.01322   0.98573  106.192
 4021.00    1.00151   0.98715  107.805
 4022.00    1.00554   0.98305  108.406
 4023.00    0.99206   0.97633  109.119
 4024.00    0.98227   0.96948  109.981
 4025.00    0.98382   0.96991  107.134
 4026.00    1.01315   0.98534  103.258
 4027.00    1.05475   1.01043   -1.000
 4028.00    1.06770   1.02315   -1.000
 4029.00    1.04440   1.00362   -1.000
 4030.00    0.97938   0.95575  114.044
 4031.00    0.92028   0.90417  118.757
 4032.00    0.89742   0.87112   -1.000
 4033.00    0.89868   0.86412   -1.000
 4034.00    0.92003   0.88122   -1.000
 4035.00    0.95347   0.91877   -1.000
 4036.00    1.00199   0.96842   -1.000
 4037.00    1.05078   1.01602   -1.000
 4038.00    1.08300   1.04383   -1.000
 4039.00    1.08068   1.04408   -1.000
 4040.00    1.04494   1.02758  104.168
 4041.00    1.02795   1.01227  105.259
 4042.00    1.03552   1.00001   -1.000
 4043.00    1.01094   0.96876   -1.000
 4044.00    0.94241   0.90572   -1.000
 4045.00    0.84493   0.83991  131.584
 4046.00    0.81155   0.81953  125.728
 4047.00    0.88217   0.85996  113.244
 4048.00    0.97757   0.92963   -1.000
 4049.00    1.02534   0.98937   -1.000
 4050.00    1.04727   1.02043  102.402
 4051.00    1.04972   1.02621  103.171
 4052.00    1.02971   1.01606  106.098
 4053.00    1.00171   0.99580  108.846
 4054.00    0.98550   0.97468  110.502
 4055.00    0.96464   0.95850  111.355
 4056.00    0.95986   0.94552  112.104
 4057.00    0.94988   0.93549  113.299
 4058.00    0.93767   0.93728  111.878
 4059.00    0.96402   0.95726  107.708
 4060.00    1.00299   0.98224  105.628
 4061.00    1.02314   0.98345   -1.000
 4062.00    0.98075   0.94309   -1.000
 4063.00    0.90301   0.88781  123.786
 4064.00    0.86265   0.85979  121.534
 4065.00    0.89030   0.86682  115.376
 4066.00    0.92604   0.89098   -1.000
 4067.00    0.95729   0.91869   -1.000
 4068.00    0.99367   0.94484   -1.000
 4069.00    1.03014   0.96063   -1.000
 4070.00    1.02228   0.95187   -1.000
 4071.00    0.96837   0.92291   -1.000
 4072.00    0.93763   0.90541   -1.000
 4073.00    0.95752   0.91655   -1.000
 4074.00    0.99866   0.93513   -1.000
 4075.00    0.98051   0.92946   -1.000
 4076.00    0.92399   0.89400   -1.000
 4077.00    0.85648   0.85758  127.334
 4078.00    0.84875   0.85039  122.869
 4079.00    0.90365   0.88299  114.257
 4080.00    0.96476   0.93846  106.367
 4081.00    1.02680   0.98400   -1.000
 4082.00    1.03471   0.99797   -1.000
 4083.00    1.00681   0.98247  108.882
 4084.00    0.97786   0.96013  110.481
 4085.00    0.96506   0.95446  108.723
 4086.00    0.99734   0.97448  104.964
 4087.00    1.04439   1.01011   -1.000
 4088.00    1.08375   1.04222   -1.000
 4089.00    1.10459   1.05662   -1.000
 4090.00    1.09705   1.05075   -1.000
 4091.00    1.07031   1.03458   -1.000
 4092.00    1.04738   1.02168  103.340
 4093.00    1.04769   1.01281   -1.000
 4094.00    1.04663   0.99868   -1.000
 4095.00    1.01258   0.97334   -1.000
 4096.00    0.97107   0.94110  114.006
 4097.00    0.95254   0.91400   -1.000
 4098.00    0.93259   0.89124   -1.000
 4099.00    0.91498   0.85554   -1.000
 4100.00    0.85682   0.79908   -1.000
 4101.00    0.78110   0.74448   -1.000
 4102.00    0.75409   0.72401   -1.000
 4103.00    0.79079   0.75431   -1.000
 4104.00    0.86960   0.81987   -1.000
 4105.00    0.92759   0.88646   -1.000
 4106.00    0.98391   0.93354   -1.000
 4107.00    1.00408   0.95909   -1.000
 4108.00    1.00267   0.96647   -1.000
 4109.00    0.98509   0.96240  111.886
 4110.00    0.97310   0.95715  113.526
 4111.00    0.96141   0.95924  112.003
 4112.00    0.97184   0.97095  109.419
 4113.00    0.99963   0.98984  107.560
 4114.00    1.01913   1.01033  105.912
 4115.00    1.03177   1.02615  104.898
 4116.00    1.03843   1.03052  105.474
 4117.00    1.02673   1.01929  107.798
 4118.00    1.00381   0.99817  111.521
 4119.00    0.97005   0.97974  112.738
 4120.00    0.97575   0.97483  111.226
 4121.00    0.99075   0.98164  110.081
 4122.00    0.98957   0.99042  110.243
 4123.00    0.99136   0.99857  109.008
 4124.00    1.00381   1.00742  107.035
 4125.00    1.02440   1.01519  106.730
 4126.00    1.02953   1.01555  108.242
 4127.00    1.01454   1.00617  110.628
 4128.00    0.98530   0.99452  111.489
 4129.00    0.97734   0.98757  112.037
 4130.00    0.97260   0.97828  113.487
 4131.00    0.95152   0.95769  117.171
 4132.00    0.92954   0.93226  120.885
 4133.00    0.90955   0.91976  121.081
 4134.00    0.91082   0.93291  116.933
 4135.00    0.95311   0.96678  110.924
 4136.00    0.99835   1.00498  107.382
 4137.00    1.01883   1.03616  105.712
 4138.00    1.04143   1.05783  104.058
 4139.00    1.05788   1.06928  103.691
 4140.00    1.05594   1.06329  105.922
 4141.00    1.03050   1.03054  111.667
 4142.00    0.96258   0.97478  121.316
 4143.00    0.88690   0.92388   -1.000
 4144.00    0.86733   0.91029   -1.000
 4145.00    0.91300   0.93851  115.028
 4146.00    0.97918   0.98330  110.827
 4147.00    1.00391   1.01369  109.781
 4148.00    0.99491   1.01930  112.003
 4149.00    0.97836   1.01142   -1.000
 4150.00    0.96132   1.00431   -1.000
 4151.00    0.95444   1.00202   -1.000
 4152.00    0.95956   0.99941   -1.000
 4153.00    0.95581   0.99114   -1.000
 4154.00    0.94314   0.97969   -1.000
 4155.00    0.93074   0.97337   -1.000
 4156.00    0.95159   0.97828   -1.000
 4157.00    1.05492   0.99381   -1.000
 4158.00    0.99183   1.01509  110.330
 4159.00    0.90760   1.03654   -1.000
 4160.00    0.93939   1.05400   -1.000
 4161.00    0.99821   1.06672   -1.000
 4162.00    1.02752   1.07631   -1.000
 4163.00    1.04911   1.08288   -1.000
 4164.00    1.03662   1.08276   -1.000
 4165.00    1.01764   1.07249   -1.000
 4166.00    0.98826   1.05269   -1.000
 4167.00    0.97437   1.03431   -1.000
 4168.00    0.97806   1.02917   -1.000
 4169.00    0.98943   1.03334   -1.000
 4170.00    0.99479   1.02935   -1.000
 4171.00    0.97390   1.00163   -1.000
 4172.00    0.91333   0.96022   -1.000
 4173.00    0.87102   0.93364   -1.000
 4174.00    0.87609   0.93715   -1.000
 4175.00    0.91726   0.96024   -1.000
 4176.00    0.94116   0.98027   -1.000
 4177.00    0.93156   0.99030   -1.000
 4178.00    0.92577   0.99958   -1.000
 4179.00    0.94046   1.01226   -1.000
 4180.00    0.96362   1.02165   -1.000
 4181.00    0.95716   1.01996   -1.000
 4182.00    0.96276   1.01295   -1.000
 4183.00    0.96045   1.01770   -1.000
 4184.00    0.99081   1.03348   -1.000
 4185.00    1.02125   1.04151  110.121
 4186.00    1.00244   1.02985   -1.000
 4187.00    0.96277   1.00799   -1.000
 4188.00    0.93771   0.99807   -1.000
 4189.00    0.96328   1.00544   -1.000
 4190.00    0.98974   1.01741   -1.000
 4191.00    0.98824   1.02905   -1.000
 4192.00    0.99990   1.04276   -1.000
 4193.00    1.02723   1.05539   -1.000
 4194.00    1.02507   1.05558   -1.000
 4195.00    0.99230   1.03283   -1.000
 4196.00    0.94390   0.99587   -1.000
 4197.00    0.92011   0.96347   -1.000
 4198.00    0.91088   0.94605   -1.000
 4199.00    0.91354   0.94109   -1.000
 4200.00    0.92844   0.94278  119.263
 4201.00    0.94062   0.94803  119.014
 4202.00    0.93655   0.95484  118.223
 4203.00    0.94145   0.96827   -1.000
 4204.00    0.95852   0.99201   -1.000
 4205.00    0.97766   1.01933   -1.000
 4206.00    0.99775   1.04366   -1.000
 4207.00    1.02358   1.06423   -1.000
 4208.00    1.04333   1.07681   -1.000
 4209.00    1.04264   1.07809   -1.000
 4210.00    1.04022   1.07407   -1.000
 4211.00    1.03582   1.07413   -1.000
 4212.00    1.04237   1.07888   -1.000
 4213.00    1.03289   1.07225   -1.000
 4214.00    0.98717   1.04467   -1.000
 4215.00    0.93969   1.01377   -1.000
 4216.00    0.93238   1.00286   -1.000
 4217.00    0.98820   1.02474   -1.000
 4218.00    1.05970   1.06576  103.299
 4219.00    1.10230   1.10182  100.497
 4220.00    1.12175   1.12155   99.489
 4221.00    1.12058   1.12136  100.482
 4222.00    1.10910   1.09659  104.801
 4223.00    1.05808   1.04449  112.341
 4224.00    0.98483   0.96626  123.671
 4225.00    0.88503   0.87694  140.616
 4226.00    0.77264   0.81034   -1.000
 4227.00    0.73621   0.80522   -1.000
 4228.00    0.82161   0.87063   -1.000
 4229.00    0.97137   0.97126  109.543
 4230.00    1.06149   1.05171  104.059
 4231.00    1.09211   1.08265  103.452
 4232.00    1.08525   1.07712  105.945
 4233.00    1.06310   1.05699  108.761
 4234.00    1.04280   1.03322  109.744
 4235.00    1.01923   1.01431  112.417
 4236.00    0.99832   1.00357  114.428
 4237.00    0.98817   1.00136  113.436
 4238.00    0.99886   1.01078  110.679
 4239.00    1.01600   1.02997  109.166
 4240.00    1.03567   1.05260  107.023
 4241.00    1.06033   1.07417  105.614
 4242.00    1.07455   1.09268  105.203
 4243.00    1.08700   1.10821  103.317
 4244.00    1.10538   1.12164  101.110
 4245.00    1.12123   1.12577  102.337
 4246.00    1.09178   1.10661  107.293
 4247.00    1.04924   1.06650  111.334
 4248.00    1.01978   1.02439  114.107
 4249.00    0.99113   0.99681  115.055
 4250.00    0.97412   0.99210  114.867
 4251.00    0.99056   1.00926  111.383
 4252.00    1.03303   1.03116  108.243
 4253.00    1.04467   1.03732  109.054
 4254.00    1.02570   1.02865  112.183
 4255.00    1.01046   1.02648  110.498
 4256.00    1.03078   1.04572  106.004
 4257.00    1.06761   1.06801  105.311
 4258.00    1.06447   1.06056  109.642
 4259.00    1.01744   1.02164  115.846
 4260.00    0.96033   0.98515  118.718
 4261.00    0.95531   0.98702   -1.000
 4262.00    1.00239   1.03030  106.613
 4263.00    1.07110   1.08844  101.644
 4264.00    1.12406   1.13180   99.389
 4265.00    1.14357   1.14670   99.251
 4266.00    1.14078   1.13967  100.979
 4267.00    1.11406   1.12022  104.446
 4268.00    1.07515   1.08802  107.601
 4269.00    1.04407   1.04189  111.804
 4270.00    1.00062   0.98579  119.398
 4271.00    0.92796   0.93381  126.761
 4272.00    0.88138   0.90429  127.764
 4273.00    0.89198   0.90515  124.681
 4274.00    0.91534   0.92955  121.532
 4275.00    0.94263   0.96816  115.953
 4276.00    0.99056   1.01917  108.275
 4277.00    1.05849   1.07195  103.340
 4278.00    1.09671   1.10041  103.521
 4279.00    1.08271   1.09292  108.441
 4280.00    1.03319   1.06465   -1.000
 4281.00    1.00694   1.04447   -1.000
 4282.00    1.01819   1.04704   -1.000
 4283.00    1.03969   1.05598  109.601
 4284.00    1.04686   1.05301  111.153
 4285.00    1.01805   1.03720  114.556
 4286.00    0.98211   1.01726   -1.000
 4287.00    0.97050   0.99822   -1.000
 4288.00    0.95262   0.97283  123.780
 4289.00    0.90838   0.93899   -1.000
 4290.00    0.87367   0.91671   -1.000
 4291.00    0.88788   0.92670   -1.000
 4292.00    0.95188   0.96352  115.174
 4293.00    1.00384   0.99887  113.260
 4294.00    1.01120   1.00959  114.480
 4295.00    0.99855   0.99791  116.420
 4296.00    0.97585   0.97409  119.128
 4297.00    0.94379   0.93561  125.374
 4298.00    0.89044   0.88212  136.589
 4299.00    0.81658   0.82814  146.693
 4300.00    0.76286   0.79218   -1.000
 4301.00    0.76652   0.78223  143.323
 4302.00    0.79251   0.79143  141.268
 4303.00    0.80873   0.80683  139.116
 4304.00    0.82657   0.81933  137.456
 4305.00    0.83519   0.82143  138.172
 4306.00    0.82656   0.80670   -1.000
 4307.00    0.79076   0.77890  151.173
 4308.00    0.74776   0.75392  154.700
 4309.00    0.73589   0.75026  151.248
 4310.00    0.76714   0.77365  142.800
 4311.00    0.81528   0.81515  133.364
 4312.00    0.86391   0.86375  126.728
 4313.00    0.90856   0.91766  121.708
 4314.00    0.95370   0.98579   -1.000
 4315.00    1.02468   1.06904   -1.000
 4316.00    1.12469   1.15420   -1.000
 4317.00    1.20585   1.21902   93.344
 4318.00    1.23673   1.24615   93.517
 4319.00    1.22791   1.24002   95.070
 4320.00    1.20317   1.21654   97.271
 4321.00    1.17043   1.18000  100.647
 4322.00    1.12765   1.12411  105.719
 4323.00    1.06778   1.04821  113.726
 4324.00    0.97652   0.96836  124.131
 4325.00    0.89699   0.92050   -1.000
 4326.00    0.88560   0.93669   -1.000
 4327.00    0.97603   1.01088   -1.000
 4328.00    1.09633   1.10092   99.316
 4329.00    1.17305   1.16273   97.707
 4330.00    1.17246   1.18443   98.260
 4331.00    1.16479   1.18543   97.649
 4332.00    1.16345   1.18875   -1.000
 4333.00    1.18334   1.19954   94.925
 4334.00    1.20254   1.20629   94.765
 4335.00    1.19992   1.19360   96.515
 4336.00    1.16824   1.14774  103.059
 4337.00    1.08885   1.06716  113.350
 4338.00    0.99371   0.96715  123.854
 4339.00    0.90462   0.88075  134.038
 4340.00    0.84084   0.84053  136.830
 4341.00    0.84874   0.85994  125.990
 4342.00    0.93138   0.92891  113.351
 4343.00    1.02780   1.01418  106.632
 4344.00    1.08216   1.08262  103.453
 4345.00    1.11475   1.12634  100.658
 4346.00    1.15208   1.15523   99.016
 4347.00    1.15587   1.17919   98.014
 4348.00    1.17981   1.20022   96.354
 4349.00    1.20935   1.20324   96.748
 4350.00    1.18032   1.17059  102.490
 4351.00    1.09267   1.11246  110.363
 4352.00    1.01729   1.06653   -1.000
 4353.00    1.03120   1.06589   -1.000
 4354.00    1.09513   1.10514  101.680
 4355.00    1.13855   1.15146   98.645
 4356.00    1.17215   1.18203   96.650
 4357.00    1.18839   1.19318   96.827
 4358.00    1.19098   1.18835   99.091
 4359.00    1.15699   1.17855  100.242
 4360.00    1.15083   1.18176   -1.000
 4361.00    1.18960   1.20223   95.027
 4362.00    1.22585   1.22794   94.105
 4363.00    1.23904   1.24835   93.761
 4364.00    1.24363   1.26124   92.651
 4365.00    1.25865   1.26380   92.640
 4366.00    1.24660   1.24777   95.727
 4367.00    1.19407   1.21557   99.279
 4368.00    1.15494   1.18709   -1.000
 4369.00    1.15328   1.17465   99.082
 4370.00    1.16779   1.17189   98.501
 4371.00    1.16979   1.16695   98.448
 4372.00    1.16405   1.15076   99.508
 4373.00    1.13952   1.12051  103.817
 4374.00    1.09197   1.08507  107.941
 4375.00    1.06713   1.06773  107.727
 4376.00    1.08840   1.08567  102.982
 4377.00    1.14914   1.13048   97.744
 4378.00    1.19115   1.17215   96.230
 4379.00    1.20096   1.18657   96.952
 4380.00    1.18972   1.16919   98.767
 4381.00    1.17100   1.11896   -1.000
 4382.00    1.09527   1.03564   -1.000
 4383.00    0.96841   0.94746  128.874
 4384.00    0.87826   0.90438   -1.000
 4385.00    0.90152   0.93166   -1.000
 4386.00    1.01224   1.00560  105.612
 4387.00    1.09744   1.07272  102.604
 4388.00    1.12156   1.10208  102.882
 4389.00    1.11239   1.10336  104.077
 4390.00    1.09708   1.10099  104.348
 4391.00    1.10484   1.10872  102.162
 4392.00    1.14080   1.12416   99.838
 4393.00    1.16132   1.13597  100.726
 4394.00    1.14346   1.13691  103.086
 4395.00    1.12427   1.13968  102.509
 4396.00    1.14824   1.16046   97.510
 4397.00    1.20323   1.18956   94.800
 4398.00    1.22119   1.20134   96.421
 4399.00    1.19304   1.18420  100.165
 4400.00    1.14313   1.15703  103.085
 4401.00    1.13106   1.14327  101.582
 4402.00    1.15050   1.13750   99.705
 4403.00    1.15535   1.11934   -1.000
 4404.00    1.09879   1.08291  109.898
 4405.00    1.04085   1.05267  110.397
 4406.00    1.06103   1.05534  106.377
 4407.00    1.09472   1.08216  104.987
 4408.00    1.09281   1.11162  104.086
 4409.00    1.10630   1.14545   -1.000
 4410.00    1.16727   1.19198   95.563
 4411.00    1.23447   1.23992   92.380
 4412.00    1.26682   1.26218   91.433
 4413.00    1.26744   1.24394   94.171
 4414.00    1.21657   1.19697   99.851
 4415.00    1.13697   1.14859  103.290
 4416.00    1.10392   1.13229   -1.000
 4417.00    1.12947   1.15932   -1.000
 4418.00    1.18225   1.20877   94.472
 4419.00    1.23021   1.25197   91.897
 4420.00    1.24784   1.26964   92.657
 4421.00    1.22663   1.25805   -1.000
 4422.00    1.19052   1.23320   -1.000
 4423.00    1.16516   1.21752   -1.000
 4424.00    1.17005   1.21682   -1.000
 4425.00    1.18469   1.22187   -1.000
 4426.00    1.17928   1.22425   -1.000
 4427.00    1.17739   1.22661   -1.000
 4428.00    1.19062   1.23116   -1.000
 4429.00    1.19869   1.23361   -1.000
 4430.00    1.18739   1.23272   -1.000
 4431.00    1.17366   1.23318   -1.000
 4432.00    1.19113   1.23363   -1.000
 4433.00    1.18820   1.21933   -1.000
 4434.00    1.14755   1.18746   -1.000
 4435.00    1.10338   1.16119   -1.000
 4436.00    1.11547   1.17012   -1.000
 4437.00    1.18420   1.21880   -1.000
 4438.00    1.25522   1.27733   89.547
 4439.00    1.29326   1.31013   89.540
 4440.00    1.28682   1.29977   92.616
 4441.00    1.23706   1.25768   97.198
 4442.00    1.17471   1.21412   -1.000
 4443.00    1.14185   1.19767   -1.000
 4444.00    1.15859   1.21793   -1.000
 4445.00    1.21856   1.26068   -1.000
 4446.00    1.26653   1.30000   -1.000
 4447.00    1.27638   1.31802   -1.000
 4448.00    1.28022   1.31951   -1.000
 4449.00    1.27693   1.31760   -1.000
 4450.00    1.26621   1.31441   -1.000
 4451.00    1.25324   1.30659   -1.000
 4452.00    1.26196   1.29187   -1.000
 4453.00    1.24737   1.26390   97.392
 4454.00    1.19358   1.22080   -1.000
 4455.00    1.14419   1.17977   -1.000
 4456.00    1.13424   1.16316   -1.000
 4457.00    1.15357   1.17016  100.053
 4458.00    1.17197   1.18204  100.250
 4459.00    1.16254   1.18527  100.799
 4460.00    1.15234   1.18155   -1.000
 4461.00    1.14194   1.18111   -1.000
 4462.00    1.14145   1.19357   -1.000
 4463.00    1.17848   1.22173   -1.000
 4464.00    1.22726   1.25407   94.289
 4465.00    1.25050   1.27431   94.296
 4466.00    1.25337   1.27784   94.368
 4467.00    1.24049   1.27008   -1.000
 4468.00    1.22696   1.25854   -1.000
 4469.00    1.21044   1.25102   -1.000
 4470.00    1.21451   1.25666   -1.000
 4471.00    1.23808   1.28167   -1.000
 4472.00    1.27791   1.31881   -1.000
 4473.00    1.32119   1.35271   -1.000
 4474.00    1.35240   1.37375   86.988
 4475.00    1.36447   1.38360   87.212
 4476.00    1.36332   1.39218   -1.000
 4477.00    1.37508   1.40085   85.892
 4478.00    1.38368   1.39439   86.761
 4479.00    1.36343   1.36012   90.169
 4480.00    1.29428   1.30820   94.334
 4481.00    1.23235   1.26774   -1.000
 4482.00    1.21912   1.26190   -1.000
 4483.00    1.25509   1.29351   -1.000
 4484.00    1.31385   1.34583   -1.000
 4485.00    1.35996   1.39136   -1.000
 4486.00    1.38162   1.41044   -1.000
 4487.00    1.38008   1.39846   88.466
 4488.00    1.33099   1.36454   -1.000
 4489.00    1.27633   1.32901   -1.000
 4490.00    1.26348   1.31471   -1.000
 4491.00    1.28242   1.32830   -1.000
 4492.00    1.32397   1.34973   88.806
 4493.00    1.33371   1.35095   90.336
 4494.00    1.29711   1.32723   -1.000
 4495.00    1.25960   1.30250   -1.000
 4496.00    1.24666   1.30008   -1.000
 4497.00    1.27742   1.32217   -1.000
 4498.00    1.32978   1.35269   88.017
 4499.00    1.36194   1.37297   87.234
 4500.00    1.35635   1.37612   88.404
 4501.00    1.32984   1.37314   -1.000
 4502.00    1.32867   1.38327   -1.000
 4503.00    1.37718   1.41077   -1.000
 4504.00    1.43411   1.44201   81.952
 4505.00    1.44967   1.46149   82.645
 4506.00    1.44280   1.46271   84.427
 4507.00    1.42725   1.45163   85.187
 4508.00    1.40889   1.44125   -1.000
 4509.00    1.40905   1.43896   -1.000
 4510.00    1.41816   1.44151   83.916
 4511.00    1.41963   1.43986   84.724
 4512.00    1.39894   1.42677   -1.000
 4513.00    1.37704   1.40619   -1.000
 4514.00    1.35475   1.38899   -1.000
 4515.00    1.34996   1.38026   -1.000
 4516.00    1.36074   1.37796   87.944
 4517.00    1.35619   1.37567   89.103
 4518.00    1.34024   1.37188   -1.000
 4519.00    1.33583   1.37574   -1.000
 4520.00    1.36899   1.38986   86.166
 4521.00    1.39176   1.40163   86.567
 4522.00    1.37790   1.39912   88.751
 4523.00    1.34513   1.38215   -1.000
 4524.00    1.32603   1.35913   -1.000
 4525.00    1.30771   1.33493   -1.000
 4526.00    1.28506   1.30606   95.766
 4527.00    1.24507   1.27100   -1.000
 4528.00    1.20970   1.23809   -1.000
 4529.00    1.20188   1.22260   98.676
 4530.00    1.21685   1.23042   96.873
 4531.00    1.23914   1.25186   95.099
 4532.00    1.26629   1.26969   94.719
 4533.00    1.26093   1.26868   97.601
 4534.00    1.21777   1.25189   -1.000
 4535.00    1.18939   1.24154   -1.000
 4536.00    1.22344   1.26217   -1.000
 4537.00    1.30928   1.31340   87.867
 4538.00    1.38316   1.36554   85.685
 4539.00    1.40199   1.39203   86.720
 4540.00    1.37857   1.39088   88.905
 4541.00    1.35419   1.38051   -1.000
 4542.00    1.35734   1.37706   87.980
 4543.00    1.35793   1.37928   87.674
 4544.00    1.37158   1.37739  129.604
 4545.00    1.28967   1.36749   -2.000
 4546.00    0.23183   1.35571   -2.000
 4547.00   -0.04821   1.34631    0.000
 4548.00    0.04169   1.33412   -1.000
 4549.00    0.99096   1.31947   -1.000
 4550.00    0.31417   1.31346   -1.000
 4551.00    0.95073   1.32194   -1.000
 4552.00    1.37695   1.33454   -1.000
 4553.00    1.30124   1.33547   -1.000
 4554.00    1.29085   1.32600   -1.000
 4555.00    1.28561   1.32180   -1.000
 4556.00    1.31417   1.33662   89.216
 4557.00    1.36752   1.37127   85.599
 4558.00    1.41174   1.40952   84.219
 4559.00    1.42854   1.43520   84.808
 4560.00    1.42758   1.44679   84.718
 4561.00    1.42634   1.44751   84.759
 4562.00    1.41700   1.43678   86.865
 4563.00    1.38087   1.41400   -1.000
 4564.00    1.34215   1.38588   -1.000
 4565.00    1.32144   1.36885   -1.000
 4566.00    1.33989   1.37549   -1.000
 4567.00    1.38650   1.40232   84.712
 4568.00    1.42481   1.43090   83.949
 4569.00    1.43206   1.44154   84.984
 4570.00    1.40590   1.42951   87.226
 4571.00    1.36133   1.40621   -1.000
 4572.00    1.34324   1.39037   -1.000
 4573.00    1.37008   1.39563   85.887
 4574.00    1.41394   1.41707   84.750
 4575.00    1.43244   1.43644   84.874
 4576.00    1.41892   1.44269   85.285
 4577.00    1.40986   1.43647   85.787
 4578.00    1.40292   1.41941   87.321
 4579.00    1.37379   1.39202   90.021
 4580.00    1.33218   1.36074   -1.000
 4581.00    1.30723   1.33863   -1.000
 4582.00    1.31489   1.33499   90.088
 4583.00    1.33906   1.34485   89.462
 4584.00    1.34561   1.35403   89.785
 4585.00    1.33850   1.35623   90.370
 4586.00    1.33712   1.35893   89.008
 4587.00    1.35877   1.37399   86.602
 4588.00    1.39602   1.40190   84.789
 4589.00    1.41848   1.42693   84.763
 4590.00    1.42501   1.43479   86.090
 4591.00    1.41105   1.42400   87.720
 4592.00    1.37100   1.40178   -1.000
 4593.00    1.35149   1.38124   -1.000
 4594.00    1.35690   1.37254   88.439
 4595.00    1.36579   1.37225   87.749
 4596.00    1.36610   1.37435   87.543
 4597.00    1.36716   1.37992   87.360
 4598.00    1.37476   1.38740   87.163
 4599.00    1.39113   1.39115   87.992
 4600.00    1.37530   1.38873   88.784
 4601.00    1.35810   1.38376   88.999
 4602.00    1.36524   1.38246   87.983
 4603.00    1.38139   1.38617   86.992
 4604.00    1.39408   1.39069   87.205
 4605.00    1.39520   1.39484   87.039
 4606.00    1.39807   1.40367   86.043
 4607.00    1.41752   1.42232   84.294
 4608.00    1.45528   1.44909   82.479
 4609.00    1.48588   1.47479   81.555
 4610.00    1.48875   1.48743   81.999
 4611.00    1.46507   1.48161   83.178
 4612.00    1.44406   1.46566   84.087
 4613.00    1.43062   1.45189   84.609
 4614.00    1.43793   1.44789   84.133
 4615.00    1.45068   1.45460   83.362
 4616.00    1.45264   1.46395   83.054
 4617.00    1.44773   1.46778   83.666
 4618.00    1.44275   1.46561   84.291
 4619.00    1.43858   1.46242   84.168
 4620.00    1.44535   1.46451   83.319
 4621.00    1.46197   1.47321   81.959
 4622.00    1.47087   1.48249   82.015
 4623.00    1.47092   1.48488   82.234
 4624.00    1.47833   1.47959   82.392
 4625.00    1.47022   1.47271   83.191
 4626.00    1.46025   1.46810   83.358
 4627.00    1.46804   1.46673   83.300
 4628.00    1.46808   1.46843   83.878
 4629.00    1.45161   1.47092   84.033
 4630.00    1.45051   1.47329   83.575
 4631.00    1.48175   1.47588   82.572
 4632.00    1.48884   1.47623   83.027
 4633.00    1.46501   1.47076   84.297
 4634.00    1.44727   1.46043   85.207
 4635.00    1.43628   1.44995   85.067
 4636.00    1.42957   1.44008   85.809
 4637.00    1.41092   1.42806   86.979
 4638.00    1.40006   1.41597   87.284
 4639.00    1.39449   1.40893   87.133
 4640.00    1.39108   1.41183   85.568
 4641.00    1.43116   1.42680   83.429
 4642.00    1.47321   1.44653   82.341
 4643.00    1.48341   1.45754   82.767
 4644.00    1.46773   1.45045   84.390
 4645.00    1.43357   1.42650   86.827
 4646.00    1.39881   1.39326   89.230
 4647.00    1.36589   1.36507   89.481
 4648.00    1.36170   1.35881   87.777
 4649.00    1.39066   1.37725   85.691
 4650.00    1.42398   1.40935   84.569
 4651.00    1.44253   1.43897   84.484
 4652.00    1.44848   1.45309   84.304
 4653.00    1.44951   1.44941   85.386
 4654.00    1.43040   1.43297   87.437
 4655.00    1.39523   1.41419   88.376
 4656.00    1.38320   1.40830   87.510
 4657.00    1.40063   1.42495   84.596
 4658.00    1.44295   1.46141   81.314
 4659.00    1.50902   1.50225   79.570
 4660.00    1.53482   1.52769   79.594
 4661.00    1.52844   1.52670   80.652
 4662.00    1.49147   1.50546   82.703
 4663.00    1.46047   1.47802   84.307
 4664.00    1.44353   1.45240   84.411
 4665.00    1.44194   1.42447   85.882
 4666.00    1.39678   1.38672   89.741
 4667.00    1.33367   1.34586   93.472
 4668.00    1.28969   1.32192   -1.000
 4669.00    1.30176   1.33231   -1.000
 4670.00    1.36469   1.37084   86.439
 4671.00    1.42662   1.41198   84.183
 4672.00    1.45759   1.43756   83.793
 4673.00    1.46222   1.44621   83.890
 4674.00    1.44772   1.44878   83.791
 4675.00    1.45585   1.45673   82.635
 4676.00    1.47945   1.46981   81.378
 4677.00    1.50715   1.47551   81.895
 4678.00    1.48749   1.46350   83.769
 4679.00    1.45170   1.43848   85.413
 4680.00    1.42538   1.41234   86.808
 4681.00    1.40009   1.39613   87.611
 4682.00    1.40044   1.39618   86.397
 4683.00    1.43209   1.41102   84.142
 4684.00    1.46560   1.43128   83.107
 4685.00    1.47963   1.44545   83.478
 4686.00    1.46981   1.44954   83.490
 4687.00    1.46353   1.44660   84.000
 4688.00    1.46382   1.44153   83.972
 4689.00    1.46432   1.43747   83.981
 4690.00    1.45798   1.43507   84.629
 4691.00    1.44983   1.43326   84.774
 4692.00    1.44841   1.43386   83.692
 4693.00    1.46588   1.44194   82.430
 4694.00    1.48838   1.45720   80.549
 4695.00    1.51261   1.47236   79.572
 4696.00    1.52824   1.47896   -1.000
 4697.00    1.51659   1.47030   -1.000
 4698.00    1.47567   1.44638   85.002
 4699.00    1.43113   1.41856   85.890
 4700.00    1.42408   1.39957   85.093
 4701.00    1.43097   1.38814   -1.000
 4702.00    1.41466   1.37725   87.404
 4703.00    1.38904   1.37123   87.786
 4704.00    1.39333   1.37762   85.985
 4705.00    1.43245   1.39307   84.743
 4706.00    1.44461   1.40412   -1.000
 4707.00    1.41925   1.40109   87.852
 4708.00    1.39902   1.38934   88.640
 4709.00    1.38685   1.38330   88.093
 4710.00    1.39638   1.39290   85.360
 4711.00    1.43496   1.41466   83.033
 4712.00    1.48066   1.43511   -1.000
 4713.00    1.49297   1.44070   -1.000
 4714.00    1.45994   1.43195   84.826
 4715.00    1.43764   1.42718   84.723
 4716.00    1.46433   1.43918   82.934
 4717.00    1.49793   1.46427   81.345
 4718.00    1.51827   1.49180   80.910
 4719.00    1.51611   1.51261   80.635
 4720.00    1.52639   1.52303   80.359
 4721.00    1.52560   1.52316   81.109
 4722.00    1.50681   1.51604   81.677
 4723.00    1.50065   1.51017   81.130
 4724.00    1.52250   1.51265   80.223
 4725.00    1.52598   1.51543   80.413
 4726.00    1.51154   1.50375   82.492
 4727.00    1.46889   1.47192   85.717
 4728.00    1.42047   1.43020   87.548
 4729.00    1.40690   1.40066   87.083
 4730.00    1.40937   1.39514   86.159
 4731.00    1.42522   1.40754   85.496
 4732.00    1.43476   1.42711   84.439
 4733.00    1.45281   1.44704   83.726
 4734.00    1.46758   1.46256   83.266
 4735.00    1.48907   1.46893   82.802
 4736.00    1.48475   1.46633   83.785
 4737.00    1.45901   1.46228   83.837
 4738.00    1.47422   1.46507   82.673
 4739.00    1.49982   1.47516   82.785
 4740.00    1.49649   1.48364   83.295
 4741.00    1.48080   1.48420   83.379
 4742.00    1.48206   1.48352   82.660
 4743.00    1.49335   1.48752   81.742
 4744.00    1.50186   1.49268   81.977
 4745.00    1.50785   1.49823   82.041
 4746.00    1.50966   1.50637   81.383
 4747.00    1.51954   1.51657   80.544
 4748.00    1.52707   1.52720   80.417
 4749.00    1.53247   1.53551   80.558
 4750.00    1.53172   1.54020   80.606
 4751.00    1.52202   1.54096   81.230
 4752.00    1.51556   1.53522   82.175
 4753.00    1.49924   1.52210   82.848
 4754.00    1.48195   1.50613   83.409
 4755.00    1.47637   1.49410   83.216
 4756.00    1.46946   1.49028   83.573
 4757.00    1.46356   1.49477   -1.000
 4758.00    1.46576   1.50427   -1.000
 4759.00    1.47780   1.51479   -1.000
 4760.00    1.49360   1.52097   83.405
 4761.00    1.49072   1.51520   84.805
 4762.00    1.45429   1.49526   -1.000
 4763.00    1.42225   1.46848   -1.000
 4764.00    1.40981   1.44592   -1.000
 4765.00    1.40983   1.43260   87.907
 4766.00    1.40847   1.42774   87.261
 4767.00    1.42620   1.43405   86.015
 4768.00    1.45841   1.45548   84.009
 4769.00    1.48907   1.48758   82.892
 4770.00    1.50920   1.51568   83.111
 4771.00    1.50439   1.52649   83.852
 4772.00    1.48139   1.52319   -1.000
 4773.00    1.48087   1.52210   -1.000
 4774.00    1.51648   1.53391   81.669
 4775.00    1.53735   1.55269   81.187
 4776.00    1.53738   1.56577   81.287
 4777.00    1.53829   1.56979   -1.000
 4778.00    1.52657   1.56914   -1.000
 4779.00    1.51676   1.56524   -1.000
 4780.00    1.50232   1.55691   -1.000
 4781.00    1.50063   1.54583   -1.000
 4782.00    1.50372   1.53411   -1.000
 4783.00    1.48339   1.52279   -1.000
 4784.00    1.47775   1.51361   -1.000
 4785.00    1.48469   1.50738   85.042
 4786.00    1.47299   1.50094   85.927
 4787.00    1.45889   1.49196   -1.000
 4788.00    1.45581   1.48591   -1.000
 4789.00    1.45736   1.48685   -1.000
 4790.00    1.46144   1.49292   -1.000
 4791.00    1.46638   1.50465   -1.000
 4792.00    1.48839   1.52395   -1.000
 4793.00    1.51240   1.55048   -1.000
 4794.00    1.54270   1.58034   -1.000
 4795.00    1.56822   1.60440   -1.000
 4796.00    1.56876   1.61314   -1.000
 4797.00    1.54868   1.60314   -1.000
 4798.00    1.51585   1.57725   -1.000
 4799.00    1.48438   1.54714   -1.000
 4800.00    1.47568   1.53071   -1.000
 4801.00    1.49762   1.53734   -1.000
 4802.00    1.53340   1.56083   80.780
 4803.00    1.55001   1.58445   -1.000
 4804.00    1.53688   1.59062   -1.000
 4805.00    1.51719   1.57716   -1.000
 4806.00    1.50050   1.55688   -1.000
 4807.00    1.49044   1.54161   -1.000
 4808.00    1.49216   1.53536   -1.000
 4809.00    1.49958   1.53832   -1.000
 4810.00    1.51037   1.54834   -1.000
 4811.00    1.51926   1.55990   -1.000
 4812.00    1.52295   1.56842   -1.000
 4813.00    1.53294   1.57265   -1.000
 4814.00    1.54130   1.57504   -1.000
 4815.00    1.54099   1.58038   -1.000
 4816.00    1.55059   1.59144   -1.000
 4817.00    1.56319   1.60566   -1.000
 4818.00    1.57408   1.61799   -1.000
 4819.00    1.57199   1.62482   -1.000
 4820.00    1.58259   1.62619   -1.000
 4821.00    1.57386   1.62061   -1.000
 4822.00    1.55040   1.60166   -1.000
 4823.00    1.51447   1.57090   -1.000
 4824.00    1.48937   1.54404   -1.000
 4825.00    1.50004   1.53675   -1.000
 4826.00    1.53840   1.54965   80.973
 4827.00    1.55440   1.56670   81.404
 4828.00    1.54211   1.57191   -1.000
 4829.00    1.51015   1.56492   -1.000
 4830.00    1.51466   1.55404   -1.000
 4831.00    1.50722   1.54304   -1.000
 4832.00    1.49868   1.53303   -1.000
 4833.00    1.50526   1.53002   82.330
 4834.00    1.52945   1.53881   81.252
 4835.00    1.53742   1.55555   80.996
 4836.00    1.55004   1.56919   81.153
 4837.00    1.54379   1.57222   81.556
 4838.00    1.53151   1.56556   -1.000
 4839.00    1.50662   1.55160   -1.000
 4840.00    1.48604   1.53515   -1.000
 4841.00    1.48110   1.52422   -1.000
 4842.00    1.49200   1.52134   83.564
 4843.00    1.50263   1.52265   82.928
 4844.00    1.50834   1.52871   82.088
 4845.00    1.53813   1.54338   80.769
 4846.00    1.55420   1.56113   80.402
 4847.00    1.55639   1.56809   82.156
 4848.00    1.52331   1.55795   -1.000
 4849.00    1.49716   1.54290   -1.000
 4850.00    1.50942   1.53914   -1.000
 4851.00    1.52719   1.54563   81.910
 4852.00    1.53780   1.55056   82.413
 4853.00    1.52430   1.54476   83.128
 4854.00    1.49596   1.52248   -1.000
 4855.00    1.45889   1.48650   -1.000
 4856.00    1.42623   1.45365   -1.000
 4857.00    1.43364   1.43691   86.880
 4858.00    1.43929   1.42369   89.444
 4859.00    1.38202   1.38135   97.478
 4860.00    1.25744   1.29052   -1.000
 4861.00    1.12600   1.18534   -1.000
 4862.00    1.09775   1.12887   -1.000
 4863.00    1.19040   1.15620   96.902
 4864.00    1.30663   1.24570   -1.000
 4865.00    1.37618   1.34093   88.189
 4866.00    1.41504   1.40898   86.380
 4867.00    1.44714   1.45075   85.642
 4868.00    1.45905   1.47462   85.294
 4869.00    1.46308   1.48198   86.091
 4870.00    1.44617   1.46744   88.618
 4871.00    1.39013   1.43293   -1.000
 4872.00    1.36544   1.39979   -1.000
 4873.00    1.38755   1.39627   87.201
 4874.00    1.43141   1.42691   85.737
 4875.00    1.45353   1.46622   85.110
 4876.00    1.46013   1.49271   -1.000
 4877.00    1.46748   1.50788   -1.000
 4878.00    1.47706   1.52385   -1.000
 4879.00    1.49869   1.54512   -1.000
 4880.00    1.51809   1.56234   -1.000
 4881.00    1.50244   1.56474   -1.000
 4882.00    1.48300   1.55256   -1.000
 4883.00    1.47672   1.53755   -1.000
 4884.00    1.48124   1.52646   -1.000
 4885.00    1.46465   1.51235   -1.000
 4886.00    1.44679   1.49310   -1.000
 4887.00    1.44247   1.48000   -1.000
 4888.00    1.44486   1.47745   -1.000
 4889.00    1.44894   1.47340   87.598
 4890.00    1.42596   1.45664   -1.000
 4891.00    1.39544   1.43518   -1.000
 4892.00    1.41073   1.43671   85.177
 4893.00    1.48359   1.47943   81.178
 4894.00    1.56714   1.54829   78.842
 4895.00    1.61029   1.61335   77.396
 4896.00    1.62793   1.65454   77.068
 4897.00    1.62934   1.66862   -1.000
 4898.00    1.61838   1.66291   -1.000
 4899.00    1.59097   1.64486   -1.000
 4900.00    1.55269   1.62246   -1.000
 4901.00    1.53918   1.60496   -1.000
 4902.00    1.54916   1.59355   -1.000
 4903.00    1.54136   1.58295   -1.000
 4904.00    1.53211   1.57632   -1.000
 4905.00    1.55589   1.58464   79.707
 4906.00    1.58308   1.60761   79.133
 4907.00    1.59303   1.62441   79.922
 4908.00    1.57460   1.61603   -1.000
 4909.00    1.52478   1.58506   -1.000
 4910.00    1.48159   1.54822   -1.000
 4911.00    1.47379   1.52511   -1.000
 4912.00    1.49407   1.52635   -1.000
 4913.00    1.52284   1.54710   81.454
 4914.00    1.54863   1.57452   80.394
 4915.00    1.58008   1.59818   79.695
 4916.00    1.59391   1.60881   80.117
 4917.00    1.57087   1.59314   83.030
 4918.00    1.50780   1.54226   -1.000
 4919.00    1.42849   1.46735   -1.000
 4920.00    1.36593   1.39969   -1.000
 4921.00    1.37098   1.37300   89.611
 4922.00    1.41515   1.39560   86.336
 4923.00    1.46714   1.44117   85.123
 4924.00    1.48822   1.47854   85.086
 4925.00    1.48542   1.50072   83.963
 4926.00    1.51524   1.52323   81.716
 4927.00    1.54396   1.55646   80.281
 4928.00    1.56926   1.59123   79.551
 4929.00    1.59699   1.61901   79.013
 4930.00    1.60831   1.63801   78.537
 4931.00    1.61220   1.64287   79.360
 4932.00    1.59530   1.62710   -1.000
 4933.00    1.54381   1.59224   -1.000
 4934.00    1.50413   1.55491   -1.000
 4935.00    1.50648   1.53692   83.116
 4936.00    1.52998   1.53672   83.114
 4937.00    1.51683   1.52944   85.673
 4938.00    1.47329   1.50263   88.039
 4939.00    1.43546   1.47542   -1.000
 4940.00    1.46491   1.47832   84.104
 4941.00    1.52997   1.51847   81.408
 4942.00    1.58086   1.57397   79.942
 4943.00    1.60727   1.61653   79.236
 4944.00    1.61720   1.63414   79.321
 4945.00    1.61452   1.63203   79.909
 4946.00    1.59162   1.62298   -1.000
 4947.00    1.58256   1.62071   -1.000
 4948.00    1.60806   1.63077   78.361
 4949.00    1.62718   1.64784   78.150
 4950.00    1.63321   1.66147   77.815
 4951.00    1.64073   1.66567   78.250
 4952.00    1.62905   1.66125   78.793
 4953.00    1.60499   1.65169   -1.000
 4954.00    1.59979   1.63861   -1.000
 4955.00    1.59589   1.61403   82.924
 4956.00    1.55418   1.56458   87.306
 4957.00    1.46814   1.49453   90.805
 4958.00    1.41549   1.44222   88.799
 4959.00    1.46786   1.44963   83.582
 4960.00    1.56455   1.51039   -1.000
 4961.00    1.62071   1.57973   80.211
 4962.00    1.61491   1.62145   80.620
 4963.00    1.60588   1.62999   81.274
 4964.00    1.59459   1.61760   82.250
 4965.00    1.56607   1.59324   84.032
 4966.00    1.53583   1.56513   -1.000
 4967.00    1.52318   1.54588   85.085
 4968.00    1.52902   1.54038   84.828
 4969.00    1.52837   1.54315   84.187
 4970.00    1.54064   1.55164   83.276
 4971.00    1.55423   1.56671   82.382
 4972.00    1.57888   1.58743   81.392
 4973.00    1.59688   1.60997   80.630
 4974.00    1.61349   1.62705   80.316
 4975.00    1.61001   1.63297   80.906
 4976.00    1.60618   1.62738   81.770
 4977.00    1.57901   1.61173   -1.000
 4978.00    1.55072   1.58932   -1.000
 4979.00    1.52984   1.56684   -1.000
 4980.00    1.51539   1.54580   -1.000
 4981.00    1.49261   1.51884   89.413
 4982.00    1.44314   1.47923   -1.000
 4983.00    1.40060   1.43516   -1.000
 4984.00    1.40150   1.41116   90.440
 4985.00    1.43726   1.42280   87.870
 4986.00    1.48164   1.46211   85.065
 4987.00    1.53468   1.51082   82.972
 4988.00    1.56212   1.55157   83.111
 4989.00    1.55572   1.56997   84.380
 4990.00    1.53923   1.56452   85.238
 4991.00    1.52788   1.55112   85.249
 4992.00    1.53442   1.54602   84.460
 4993.00    1.55343   1.55167   84.117
 4994.00    1.55172   1.56069   84.088
 4995.00    1.54881   1.56865   83.640
 4996.00    1.56430   1.57684   83.224
 4997.00    1.56454   1.58234   83.759
 4998.00    1.55371   1.57613   84.904
 4999.00    1.53445   1.55411   86.646
 5000.00    1.49905   1.52305   87.712
 5001.00    1.48124   1.49687   87.742
 5002.00    1.49390   1.48570   86.880
 5003.00    1.51160   1.48641   86.313
 5004.00    1.51796   1.48524   87.613
 5005.00    1.49170   1.47041   89.891
 5006.00    1.45335   1.44686   90.341
 5007.00    1.44965   1.43619   88.042
 5008.00    1.49337   1.45600   85.333
 5009.00    1.53765   1.49576   -1.000
 5010.00    1.54905   1.52474   85.646
 5011.00    1.52478   1.52217   88.276
 5012.00    1.48417   1.48997   91.623
 5013.00    1.42810   1.44754   93.721
 5014.00    1.39807   1.41665   93.189
 5015.00    1.40473   1.41023   91.071
 5016.00    1.44340   1.42440   89.165
 5017.00    1.46952   1.44265   88.836
 5018.00    1.46277   1.45408   88.869
 5019.00    1.47370   1.46191   87.822
 5020.00    1.50240   1.47333   87.112
 5021.00    1.51370   1.48457   87.535
 5022.00    1.50008   1.48940   87.723
 5023.00    1.49638   1.49293   87.198
 5024.00    1.50797   1.50488   86.258
 5025.00    1.53204   1.52285   85.690
 5026.00    1.53593   1.53315   86.132
 5027.00    1.52343   1.52939   86.547
 5028.00    1.51513   1.52263   85.715
 5029.00    1.53363   1.52802   84.068
 5030.00    1.55917   1.54740   82.882
 5031.00    1.57987   1.57365   81.527
 5032.00    1.60138   1.59937   80.600
 5033.00    1.62161   1.61737   80.767
 5034.00    1.61650   1.61732   83.452
 5035.00    1.56556   1.59182   86.804
 5036.00    1.51000   1.55102   -1.000
 5037.00    1.48852   1.51924   -1.000
 5038.00    1.48821   1.50262   89.573
 5039.00    1.46465   1.48019   93.194
 5040.00    1.40452   1.43730   -1.000
 5041.00    1.35009   1.39102   -1.000
 5042.00    1.35984   1.37993   92.075
 5043.00    1.44645   1.42227   86.326
 5044.00    1.53796   1.49689   -1.000
 5045.00    1.59279   1.56979   81.179
 5046.00    1.66355   1.61789   -1.000
 5047.00    1.45600   1.63126   -1.000
 5048.00    0.72789   1.61047   -1.000
 5049.00    0.06064   1.56854   -1.000
 5050.00    0.34685   1.52769   -1.000
 5051.00    1.41668   1.50622   -1.000
 5052.00    1.53538   1.50912   85.029
 5053.00    1.54963   1.53180   82.870
 5054.00    1.59235   1.56660   81.381
 5055.00    1.62872   1.60142   80.631
 5056.00    1.64213   1.62448   80.389
 5057.00    1.64489   1.63467   80.552
 5058.00    1.64405   1.63837   80.702
 5059.00    1.63342   1.64213   80.663
 5060.00    1.63602   1.64986   80.092
 5061.00    1.64009   1.66031   80.160
 5062.00    1.65187   1.66461   81.284
 5063.00    1.62924   1.64946   83.711
 5064.00    1.57540   1.61071   -1.000
 5065.00    1.52117   1.56383   -1.000
 5066.00    1.51364   1.53476   86.504
 5067.00    1.53551   1.53166   85.181
 5068.00    1.54847   1.54081   84.951
 5069.00    1.55541   1.55158   84.541
 5070.00    1.57515   1.56251   83.975
 5071.00    1.58548   1.56969   84.707
 5072.00    1.56949   1.56740   85.378
 5073.00    1.55488   1.55974   84.255
 5074.00    1.57255   1.55740   83.612
 5075.00    1.58727   1.56297   83.522
 5076.00    1.58801   1.56986   83.457
 5077.00    1.58195   1.56924   84.308
 5078.00    1.56629   1.55190   87.349
 5079.00    1.50411   1.51301   91.578
 5080.00    1.44056   1.46674   92.501
 5081.00    1.44120   1.44358   90.429
 5082.00    1.48042   1.45428   88.496
 5083.00    1.50545   1.48007   87.337
 5084.00    1.52637   1.50651   85.663
 5085.00    1.56223   1.53382   84.200
 5086.00    1.58575   1.56047   83.634
 5087.00    1.59504   1.57981   83.539
 5088.00    1.60171   1.58950   83.104
 5089.00    1.60799   1.59487   82.494
 5090.00    1.61349   1.60151   82.046
 5091.00    1.61398   1.61094   81.621
 5092.00    1.62940   1.62348   80.654
 5093.00    1.64714   1.63780   79.939
 5094.00    1.66550   1.64764   80.734
 5095.00    1.66812   1.64290   82.468
 5096.00    1.60567   1.61723   84.254
 5097.00    1.56762   1.57574   86.310
 5098.00    1.52992   1.53259   88.108
 5099.00    1.49623   1.50317   88.321
 5100.00    1.50553   1.50220   86.044
 5101.00    1.55842   1.53104   83.529
 5102.00    1.60578   1.56905   82.872
 5103.00    1.60540   1.59156   83.413
 5104.00    1.58570   1.59164   84.544
 5105.00    1.57028   1.57925   85.612
 5106.00    1.56221   1.56205   86.659
 5107.00    1.53399   1.54145   87.750
 5108.00    1.52334   1.52187   87.559
 5109.00    1.52336   1.50958   86.979
 5110.00    1.52890   1.50953   86.351
 5111.00    1.54443   1.52429   85.078
 5112.00    1.57089   1.55106   84.045
 5113.00    1.60242   1.57998   83.020
 5114.00    1.61130   1.60167   82.283
 5115.00    1.61913   1.61648   81.857
 5116.00    1.63508   1.62954   80.970
 5117.00    1.65172   1.64269   80.301
 5118.00    1.66629   1.65311   80.582
 5119.00    1.65932   1.65445   81.679
 5120.00    1.63730   1.64196   82.917
 5121.00    1.60808   1.61706   84.294
 5122.00    1.57994   1.58430   86.508
 5123.00    1.54192   1.54782   89.143
 5124.00    1.50552   1.51536   89.664
 5125.00    1.49494   1.49700   88.799
 5126.00    1.50778   1.49522   88.385
 5127.00    1.52353   1.50184   87.851
 5128.00    1.52105   1.50719   88.011
 5129.00    1.51494   1.51033   87.920
 5130.00    1.52041   1.51618   86.720
 5131.00    1.54061   1.52891   85.221
 5132.00    1.56358   1.54786   84.567
 5133.00    1.57942   1.56744   83.753
 5134.00    1.60291   1.58345   83.018
 5135.00    1.61433   1.59418   82.830
 5136.00    1.61782   1.59554   84.413
 5137.00    1.59064   1.58097   86.500
 5138.00    1.54413   1.55136   87.843
 5139.00    1.51288   1.52299   87.901
 5140.00    1.51133   1.51124   87.064
 5141.00    1.52892   1.51303   87.789
 5142.00    1.52523   1.51476   89.264
 5143.00    1.50841   1.51241   88.642
 5144.00    1.51705   1.51564   87.097
 5145.00    1.53134   1.52650   86.857
 5146.00    1.53636   1.53066   87.730
 5147.00    1.52920   1.52277   87.913
 5148.00    1.52330   1.51649   86.764
 5149.00    1.54818   1.52125   86.308
 5150.00    1.55537   1.52871   87.462
 5151.00    1.53445   1.52574   89.091
 5152.00    1.51354   1.51314   89.623
 5153.00    1.50444   1.50361   89.114
 5154.00    1.51396   1.50564   87.344
 5155.00    1.54008   1.52141   85.094
 5156.00    1.57666   1.55015   82.930
 5157.00    1.61768   1.58486   81.407
 5158.00    1.64323   1.61388   80.854
 5159.00    1.65265   1.63033   80.871
 5160.00    1.65304   1.63451   81.157
 5161.00    1.65226   1.62817   81.634
 5162.00    1.64462   1.61284   82.582
 5163.00    1.61634   1.59037   83.884
 5164.00    1.59445   1.55657   -1.000
 5165.00    1.53806   1.49885   -1.000
 5166.00    1.40867   1.40813  104.701
 5167.00    1.26928   1.30130   -1.000
 5168.00    1.20743   1.22876  108.775
 5169.00    1.26080   1.22700   -1.000
 5170.00    1.34564   1.27116   -1.000
 5171.00    1.34730   1.29238   -1.000
 5172.00    1.24016   1.25585  115.583
 5173.00    1.16192   1.21219   -1.000
 5174.00    1.24553   1.23291   97.825
 5175.00    1.40757   1.32694   -1.000
 5176.00    1.53302   1.44098   -1.000
 5177.00    1.58761   1.52034   -1.000
 5178.00    1.60104   1.55619   -1.000
 5179.00    1.60133   1.56503   86.630
 5180.00    1.58446   1.55176   89.794
 5181.00    1.52479   1.50359   96.511
 5182.00    1.40182   1.41003  108.039
 5183.00    1.24316   1.29375   -1.000
 5184.00    1.15605   1.21335   -1.000
 5185.00    1.23616   1.22577   97.382
 5186.00    1.41570   1.32709   -1.000
 5187.00    1.54131   1.44642   -1.000
 5188.00    1.58032   1.52501   -1.000
 5189.00    1.59996   1.55816   -1.000
 5190.00    1.60682   1.56184   -1.000
 5191.00    1.57782   1.54161   -1.000
 5192.00    1.51283   1.50264   91.917
 5193.00    1.48954   1.46873   91.029
 5194.00    1.50530   1.46385   -1.000
 5195.00    1.53249   1.48207   -1.000
 5196.00    1.55864   1.50487   -1.000
 5197.00    1.58119   1.52899   -1.000
 5198.00    1.61252   1.55750   -1.000
 5199.00    1.63859   1.58625   -1.000
 5200.00    1.64703   1.60727   82.924
 5201.00    1.64706   1.61533   83.641
 5202.00    1.63431   1.60710   85.213
 5203.00    1.61294   1.58101   87.191
 5204.00    1.57464   1.53888   89.990
 5205.00    1.52350   1.48853   92.757
 5206.00    1.48765   1.44451   -1.000
 5207.00    1.48038   1.41799   -1.000
 5208.00    1.46856   1.40828   -1.000
 5209.00    1.46582   1.41140   -1.000
 5210.00    1.48866   1.43316   -1.000
 5211.00    1.54466   1.48038   -1.000
 5212.00    1.61511   1.54255   -1.000
 5213.00    1.67172   1.59600   -1.000
 5214.00    1.68409   1.61967   -1.000
 5215.00    1.65300   1.60927   -1.000
 5216.00    1.62347   1.58228   -1.000
 5217.00    1.60794   1.56559   -1.000
 5218.00    1.62349   1.57553   -1.000
 5219.00    1.66482   1.60597   -1.000
 5220.00    1.69584   1.63936   -1.000
 5221.00    1.71184   1.66193   -1.000
 5222.00    1.71346   1.66617   -1.000
 5223.00    1.67613   1.64841   83.732
 5224.00    1.62617   1.60725   87.256
 5225.00    1.56245   1.54488   91.386
 5226.00    1.49542   1.47692   93.803
 5227.00    1.46367   1.43383   91.521
 5228.00    1.50524   1.44083   -1.000
 5229.00    1.58835   1.49583   -1.000
 5230.00    1.66030   1.56674   -1.000
 5231.00    1.68809   1.61292   -1.000
 5232.00    1.66651   1.61613   -1.000
 5233.00    1.63342   1.58910   -1.000
 5234.00    1.61834   1.56290   -1.000
 5235.00    1.62218   1.56509   -1.000
 5236.00    1.66032   1.59699   -1.000
 5237.00    1.69878   1.64010   -1.000
 5238.00    1.72416   1.67348   -1.000
 5239.00    1.72809   1.68782   79.731
 5240.00    1.72367   1.68914   79.560
 5241.00    1.72763   1.68592   79.067
 5242.00    1.72828   1.68223   -1.000
 5243.00    1.73319   1.68152   -1.000
 5244.00    1.73638   1.68560   -1.000
 5245.00    1.74119   1.68676   -1.000
 5246.00    1.71003   1.67103   83.232
 5247.00    1.64786   1.63685   85.119
 5248.00    1.61972   1.60273   85.215
 5249.00    1.62631   1.58376   -1.000
 5250.00    1.62297   1.57580   -1.000
 5251.00    1.60800   1.57373   85.476
 5252.00    1.61942   1.58101   84.236
 5253.00    1.64612   1.59422   -1.000
 5254.00    1.65034   1.60256   -1.000
 5255.00    1.64681   1.60608   82.853
 5256.00    1.66795   1.61873   -1.000
 5257.00    1.71260   1.65102   -1.000
 5258.00    1.75793   1.69088   -1.000
 5259.00    1.77124   1.71370   -1.000
 5260.00    1.74637   1.70549   -1.000
 5261.00    1.69192   1.66586   84.659
 5262.00    1.61843   1.60377   88.725
 5263.00    1.55177   1.53345   91.714
 5264.00    1.49884   1.46936   93.518
 5265.00    1.46697   1.42553   -1.000
 5266.00    1.46239   1.41122   -1.000
 5267.00    1.50315   1.42104   -1.000
 5268.00    1.53227   1.42879   -1.000
 5269.00    1.48836   1.40929   -1.000
 5270.00    1.42975   1.37935   -1.000
 5271.00    1.46677   1.38430   -1.000
 5272.00    1.57182   1.44049   -1.000
 5273.00    1.63260   1.51426   -1.000
 5274.00    1.64025   1.55958   -1.000
 5275.00    1.63427   1.57248   -1.000
 5276.00    1.64004   1.58405   -1.000
 5277.00    1.68686   1.61629   -1.000
 5278.00    1.74886   1.66304   -1.000
 5279.00    1.77710   1.69616   -1.000
 5280.00    1.75811   1.69516   -1.000
 5281.00    1.70977   1.66511   -1.000
 5282.00    1.66587   1.62575   -1.000
 5283.00    1.63552   1.59536   -1.000
 5284.00    1.63892   1.58884   -1.000
 5285.00    1.68394   1.61545   -1.000
 5286.00    1.65709   1.66655   77.516
 5287.00    1.76197   1.71588   -1.000
 5288.00    1.80433   1.74339   -1.000
 5289.00    1.78451   1.75322   77.498
 5290.00    1.79719   1.75790   77.012
 5291.00    1.80506   1.76017   -1.000
 5292.00    1.80420   1.75686   -1.000
 5293.00    1.78949   1.74794   78.122
 5294.00    1.77953   1.73561   -1.000
 5295.00    1.75700   1.71501   -1.000
 5296.00    1.70342   1.67601   84.627
 5297.00    1.64062   1.62190   86.820
 5298.00    1.59573   1.57726   86.069
 5299.00    1.60588   1.56747   83.770
 5300.00    1.65677   1.59136   -1.000
 5301.00    1.68810   1.62289   -1.000
 5302.00    1.70035   1.64672   -1.000
 5303.00    1.72954   1.67152   -1.000
 5304.00    1.77539   1.70548   -1.000
 5305.00    1.81496   1.73985   -1.000
 5306.00    1.80967   1.75702   -1.000
 5307.00    1.78150   1.75343   78.482
 5308.00    1.78497   1.74474   77.879
 5309.00    1.80167   1.74650   -1.000
 5310.00    1.81870   1.75930   -1.000
 5311.00    1.82630   1.77080   -1.000
 5312.00    1.82081   1.77140   -1.000
 5313.00    1.81364   1.76297   -1.000
 5314.00    1.80463   1.75045   -1.000
 5315.00    1.79845   1.73555   -1.000
 5316.00    1.77059   1.71906   -1.000
 5317.00    1.75443   1.70556   -1.000
 5318.00    1.76396   1.70268   -1.000
 5319.00    1.77757   1.71009   -1.000
 5320.00    1.79238   1.71765   -1.000
 5321.00    1.78089   1.71702   -1.000
 5322.00    1.76579   1.70531   -1.000
 5323.00    1.74821   1.68244   -1.000
 5324.00    1.71400   1.65510   -1.000
 5325.00    1.70051   1.63308   -1.000
 5326.00    1.68980   1.60938   -1.000
 5327.00    1.63683   1.56363   -1.000
 5328.00    1.53492   1.49973   -1.000
 5329.00    1.50306   1.45913   -1.000
 5330.00    1.58565   1.48331   -1.000
 5331.00    1.67891   1.55973   -1.000
 5332.00    1.72129   1.63213   -1.000
 5333.00    1.73326   1.67189   -1.000
 5334.00    1.74966   1.69293   -1.000
 5335.00    1.78193   1.71124   -1.000
 5336.00    1.79438   1.72639   -1.000
 5337.00    1.78202   1.72970   -1.000
 5338.00    1.76760   1.71682   -1.000
 5339.00    1.74177   1.68816   -1.000
 5340.00    1.69546   1.64971   -1.000
 5341.00    1.66892   1.62023   -1.000
 5342.00    1.69732   1.62203   -1.000
 5343.00    1.74807   1.65243   -1.000
 5344.00    1.76683   1.68301   -1.000
 5345.00    1.76183   1.69436   -1.000
 5346.00    1.75733   1.68893   -1.000
 5347.00    1.75733   1.67686   -1.000
 5348.00    1.74960   1.66394   -1.000
 5349.00    1.72887   1.65346   -1.000
 5350.00    1.72392   1.65496   -1.000
 5351.00    1.75179   1.67573   -1.000
 5352.00    1.78658   1.70647   -1.000
 5353.00    1.79446   1.73325   -1.000
 5354.00    1.80654   1.75245   -1.000
 5355.00    1.83205   1.76957   -1.000
 5356.00    1.85745   1.78781   -1.000
 5357.00    1.85468   1.80154   -1.000
 5358.00    1.86229   1.80612   -1.000
 5359.00    1.86570   1.80280   -1.000
 5360.00    1.85617   1.79269   -1.000
 5361.00    1.83264   1.77525   -1.000
 5362.00    1.80511   1.75344   -1.000
 5363.00    1.77370   1.73220   -1.000
 5364.00    1.75921   1.71389   -1.000
 5365.00    1.74749   1.69940   -1.000
 5366.00    1.73480   1.69015   -1.000
 5367.00    1.74693   1.68670   -1.000
 5368.00    1.75487   1.68207   -1.000
 5369.00    1.73219   1.66175   -1.000
 5370.00    1.69041   1.62098   -1.000
 5371.00    1.64119   1.57931   -1.000
 5372.00    1.64467   1.56861   -1.000
 5373.00    1.70726   1.60509   -1.000
 5374.00    1.79333   1.67023   -1.000
 5375.00    1.83507   1.72915   -1.000
 5376.00    1.83869   1.76070   -1.000
 5377.00    1.83594   1.76697   -1.000
 5378.00    1.83324   1.76344   -1.000
 5379.00    1.82897   1.75971   -1.000
 5380.00    1.80785   1.75479   -1.000
 5381.00    1.79923   1.74438   -1.000
 5382.00    1.78758   1.72902   -1.000
 5383.00    1.77466   1.71625   -1.000
 5384.00    1.78296   1.71403   -1.000
 5385.00    1.80040   1.72369   -1.000
 5386.00    1.82405   1.73785   -1.000
 5387.00    1.82522   1.74583   -1.000
 5388.00    1.80923   1.74184   -1.000
 5389.00    1.78818   1.72616   -1.000
 5390.00    1.76697   1.70358   -1.000
 5391.00    1.75174   1.68233   -1.000
 5392.00    1.74075   1.66811   -1.000
 5393.00    1.73842   1.66053   -1.000
 5394.00    1.73306   1.65611   -1.000
 5395.00    1.72864   1.64784   -1.000
 5396.00    1.70450   1.62863   -1.000
 5397.00    1.66480   1.60417   -1.000
 5398.00    1.66791   1.59547   -1.000
 5399.00    1.71921   1.61540   -1.000
 5400.00    1.76653   1.65158   -1.000
 5401.00    1.76790   1.68290   -1.000
 5402.00    1.76184   1.69625   -1.000
 5403.00    1.74882   1.68380   -1.000
 5404.00    1.69781   1.64342   -1.000
 5405.00    1.64449   1.58985   -1.000
 5406.00    1.62588   1.55377   -1.000
 5407.00    1.65525   1.55693   -1.000
 5408.00    1.69894   1.58584   -1.000
 5409.00    1.70062   1.60929   -1.000
 5410.00    1.68206   1.61671   -1.000
 5411.00    1.70349   1.62613   -1.000
 5412.00    1.75625   1.65549   -1.000
 5413.00    1.79963   1.69343   -1.000
 5414.00    1.80369   1.71756   -1.000
 5415.00    1.79373   1.72605   -1.000
 5416.00    1.80179   1.73388   -1.000
 5417.00    1.81705   1.74850   -1.000
 5418.00    1.82581   1.76026   -1.000
 5419.00    1.81504   1.75822   -1.000
 5420.00    1.79677   1.74636   -1.000
 5421.00    1.79272   1.73574   -1.000
 5422.00    1.80377   1.73023   -1.000
 5423.00    1.80303   1.72362   -1.000
 5424.00    1.77757   1.71201   -1.000
 5425.00    1.75754   1.70841   -1.000
 5426.00    1.77708   1.72558   -1.000
 5427.00    1.81811   1.74856   -1.000
 5428.00    1.81233   1.74624   -1.000
 5429.00    1.75404   1.70884   -1.000
 5430.00    1.70862   1.66448   -1.000
 5431.00    1.71736   1.64728   -1.000
 5432.00    1.74924   1.65576   -1.000
 5433.00    1.74381   1.66192   -1.000
 5434.00    1.71581   1.64977   -1.000
 5435.00    1.69605   1.63236   -1.000
 5436.00    1.70753   1.63404   -1.000
 5437.00    1.73974   1.66450   -1.000
 5438.00    1.79246   1.71359   -1.000
 5439.00    1.83813   1.76103   -1.000
 5440.00    1.85649   1.79311   -1.000
 5441.00    1.87576   1.80895   -1.000
 5442.00    1.87484   1.81395   -1.000
 5443.00    1.86477   1.81012   -1.000
 5444.00    1.83912   1.78966   -1.000
 5445.00    1.78269   1.74500   -1.000
 5446.00    1.70966   1.68520   85.687
 5447.00    1.67321   1.63860   84.724
 5448.00    1.69870   1.63249   -1.000
 5449.00    1.77143   1.66711   -1.000
 5450.00    1.82376   1.71674   -1.000
 5451.00    1.83425   1.75150   -1.000
 5452.00    1.83219   1.75876   -1.000
 5453.00    1.81483   1.74186   -1.000
 5454.00    1.77968   1.70539   -1.000
 5455.00    1.71214   1.65973   -1.000
 5456.00    1.69067   1.63101   -1.000
 5457.00    1.73821   1.64350   -1.000
 5458.00    1.81213   1.69155   -1.000
 5459.00    1.84812   1.74073   -1.000
 5460.00    1.85213   1.76063   -1.000
 5461.00    1.80766   1.74815   -1.000
 5462.00    1.77590   1.71792   -1.000
 5463.00    1.76321   1.69025   -1.000
 5464.00    1.76220   1.68192   -1.000
 5465.00    1.78795   1.69532   -1.000
 5466.00    1.81447   1.71739   -1.000
 5467.00    1.81862   1.73476   -1.000
 5468.00    1.82472   1.74494   -1.000
 5469.00    1.83732   1.74840   -1.000
 5470.00    1.81961   1.74397   -1.000
 5471.00    1.80706   1.73364   -1.000
 5472.00    1.80614   1.72206   -1.000
 5473.00    1.78864   1.71054   -1.000
 5474.00    1.77445   1.69583   -1.000
 5475.00    1.74667   1.67294   -1.000
 5476.00    1.71068   1.64183   -1.000
 5477.00    1.68372   1.61622   -1.000
 5478.00    1.70019   1.61932   -1.000
 5479.00    1.76536   1.65276   -1.000
 5480.00    1.79458   1.68428   -1.000
 5481.00    1.76387   1.68892   -1.000
 5482.00    1.73912   1.67712   -1.000
 5483.00    1.75191   1.67676   -1.000
 5484.00    1.78730   1.70078   -1.000
 5485.00    1.82133   1.73329   -1.000
 5486.00    1.83083   1.75003   -1.000
 5487.00    1.81508   1.74242   -1.000
 5488.00    1.78621   1.72306   -1.000
 5489.00    1.77837   1.71126   -1.000
 5490.00    1.79075   1.71461   -1.000
 5491.00    1.80564   1.72709   -1.000
 5492.00    1.81393   1.73793   -1.000
 5493.00    1.82095   1.74140   -1.000
 5494.00    1.81884   1.73970   -1.000
 5495.00    1.82238   1.73773   -1.000
 5496.00    1.82302   1.73489   -1.000
 5497.00    1.80204   1.72804   -1.000
 5498.00    1.79825   1.72347   -1.000
 5499.00    1.82369   1.72951   -1.000
 5500.00    1.83788   1.73705   -1.000
 5501.00    1.81644   1.73021   -1.000
 5502.00    1.78992   1.71128   -1.000
 5503.00    1.78317   1.69688   -1.000
 5504.00    1.80431   1.69516   -1.000
 5505.00    1.80982   1.69555   -1.000
 5506.00    1.77971   1.68721   -1.000
 5507.00    1.75716   1.67781   -1.000
 5508.00    1.78323   1.68164   -1.000
 5509.00    1.81679   1.69896   -1.000
 5510.00    1.82060   1.71327   -1.000
 5511.00    1.79794   1.70846   -1.000
 5512.00    1.76703   1.68547   -1.000
 5513.00    1.73571   1.65928   -1.000
 5514.00    1.72407   1.64720   -1.000
 5515.00    1.75303   1.65562   -1.000
 5516.00    1.78804   1.67762   -1.000
 5517.00    1.81927   1.70472   -1.000
 5518.00    1.85409   1.73246   -1.000
 5519.00    1.87444   1.75693   -1.000
 5520.00    1.87677   1.77273   -1.000
 5521.00    1.86954   1.77688   -1.000
 5522.00    1.86849   1.77385   -1.000
 5523.00    1.85953   1.77080   -1.000
 5524.00    1.84987   1.76831   -1.000
 5525.00    1.84401   1.75980   -1.000
 5526.00    1.81881   1.73789   -1.000
 5527.00    1.77492   1.70336   -1.000
 5528.00    1.72927   1.66988   -1.000
 5529.00    1.72595   1.65821   -1.000
 5530.00    1.76799   1.67788   -1.000
 5531.00    1.81836   1.71396   -1.000
 5532.00    1.83214   1.74113   -1.000
 5533.00    1.82344   1.74731   -1.000
 5534.00    1.81323   1.73882   -1.000
 5535.00    1.80713   1.72817   -1.000
 5536.00    1.80816   1.72352   -1.000
 5537.00    1.82027   1.72669   -1.000
 5538.00    1.83336   1.73487   -1.000
 5539.00    1.84068   1.74606   -1.000
 5540.00    1.87278   1.76085   -1.000
 5541.00    1.88520   1.77480   -1.000
 5542.00    1.87427   1.77848   -1.000
 5543.00    1.84930   1.76941   -1.000
 5544.00    1.83713   1.75584   -1.000
 5545.00    1.83234   1.74809   -1.000
 5546.00    1.84422   1.74878   -1.000
 5547.00    1.85354   1.75565   -1.000
 5548.00    1.86907   1.76908   -1.000
 5549.00    1.89135   1.78752   -1.000
 5550.00    1.90716   1.80281   -1.000
 5551.00    1.90778   1.80845   -1.000
 5552.00    1.88904   1.80381   -1.000
 5553.00    1.86895   1.79093   -1.000
 5554.00    1.85315   1.77552   -1.000
 5555.00    1.84996   1.76615   -1.000
 5556.00    1.85577   1.76576   -1.000
 5557.00    1.86114   1.76946   -1.000
 5558.00    1.86601   1.77222   -1.000
 5559.00    1.86540   1.77361   -1.000
 5560.00    1.86509   1.77517   -1.000
 5561.00    1.86285   1.77428   -1.000
 5562.00    1.84800   1.76667   -1.000
 5563.00    1.83303   1.75396   -1.000
 5564.00    1.81833   1.74219   -1.000
 5565.00    1.80796   1.73522   -1.000
 5566.00    1.81043   1.73192   -1.000
 5567.00    1.80955   1.72953   -1.000
 5568.00    1.81077   1.72779   -1.000
 5569.00    1.81212   1.72788   -1.000
 5570.00    1.81040   1.73008   -1.000
 5571.00    1.81116   1.73195   -1.000
 5572.00    1.81482   1.73057   -1.000
 5573.00    1.80188   1.72807   -1.000
 5574.00    1.79180   1.73090   -1.000
 5575.00    1.75983   1.74154   80.122
 5576.00    1.68971   1.75452   -1.000
 5577.00    1.79759   1.76354   77.561
 5578.00    1.91586   1.76952   -1.000
 5579.00    1.91197   1.77594   -1.000
 5580.00    1.94682   1.78150   -1.000
 5581.00    1.90540   1.78315   -1.000
 5582.00    1.86113   1.77978   -1.000
 5583.00    1.85475   1.77298   -1.000
 5584.00    1.85337   1.76464   -1.000
 5585.00    1.83840   1.74947   -1.000
 5586.00    1.79785   1.71860   -1.000
 5587.00    1.74634   1.67516   -1.000
 5588.00    1.70633   1.63642   -1.000
 5589.00    1.70461   1.62052   -1.000
 5590.00    1.72912   1.63198   -1.000
 5591.00    1.76127   1.65966   -1.000
 5592.00    1.78465   1.68595   -1.000
 5593.00    1.78496   1.69968   -1.000
 5594.00    1.77801   1.70526   -1.000
 5595.00    1.79245   1.71592   -1.000
 5596.00    1.82858   1.73623   -1.000
 5597.00    1.85224   1.75160   -1.000
 5598.00    1.82107   1.74583   -1.000
 5599.00    1.78679   1.72387   -1.000
 5600.00    1.78029   1.70081   -1.000
 5601.00    1.76741   1.68241   -1.000
 5602.00    1.75003   1.66999   -1.000
 5603.00    1.75450   1.67160   -1.000
 5604.00    1.79379   1.69699   -1.000
 5605.00    1.84675   1.74273   -1.000
 5606.00    1.88659   1.78898   -1.000
 5607.00    1.90219   1.81840   -1.000
 5608.00    1.90292   1.82961   -1.000
 5609.00    1.90906   1.83030   -1.000
 5610.00    1.90827   1.82925   -1.000
 5611.00    1.90857   1.83135   -1.000
 5612.00    1.91244   1.83251   -1.000
 5613.00    1.90264   1.81954   -1.000
 5614.00    1.85592   1.78151   -1.000
 5615.00    1.78495   1.72569   -1.000
 5616.00    1.75643   1.68319   -1.000
 5617.00    1.78206   1.68032   -1.000
 5618.00    1.82445   1.70874   -1.000
 5619.00    1.84839   1.74034   -1.000
 5620.00    1.85660   1.75948   -1.000
 5621.00    1.86310   1.77090   -1.000
 5622.00    1.87110   1.77826   -1.000
 5623.00    1.85488   1.77237   -1.000
 5624.00    1.82493   1.74925   -1.000
 5625.00    1.79310   1.72317   -1.000
 5626.00    1.79882   1.71498   -1.000
 5627.00    1.83312   1.73149   -1.000
 5628.00    1.86002   1.75905   -1.000
 5629.00    1.88749   1.78320   -1.000
 5630.00    1.89888   1.80120   -1.000
 5631.00    1.91081   1.81288   -1.000
 5632.00    1.91298   1.81628   -1.000
 5633.00    1.89728   1.81142   -1.000
 5634.00    1.88563   1.80072   -1.000
 5635.00    1.87274   1.78645   -1.000
 5636.00    1.85979   1.77020   -1.000
 5637.00    1.84365   1.75491   -1.000
 5638.00    1.84078   1.74626   -1.000
 5639.00    1.84853   1.74655   -1.000
 5640.00    1.84147   1.74940   -1.000
 5641.00    1.83992   1.74782   -1.000
 5642.00    1.82949   1.74377   -1.000
 5643.00    1.84332   1.74453   -1.000
 5644.00    1.85751   1.75221   -1.000
 5645.00    1.85909   1.76174   -1.000
 5646.00    1.86559   1.76928   -1.000
 5647.00    1.86577   1.77432   -1.000
 5648.00    1.87247   1.77536   -1.000
 5649.00    1.87769   1.77172   -1.000
 5650.00    1.87370   1.76797   -1.000
 5651.00    1.88282   1.77044   -1.000
 5652.00    1.89518   1.77878   -1.000
 5653.00    1.89526   1.78496   -1.000
 5654.00    1.87662   1.78167   -1.000
 5655.00    1.85048   1.77022   -1.000
 5656.00    1.83933   1.75355   -1.000
 5657.00    1.80879   1.72836   -1.000
 5658.00    1.75394   1.69604   -1.000
 5659.00    1.73209   1.67216   -1.000
 5660.00    1.76538   1.67272   -1.000
 5661.00    1.80957   1.69316   -1.000
 5662.00    1.81573   1.71190   -1.000
 5663.00    1.80999   1.72153   -1.000
 5664.00    1.83035   1.73526   -1.000
 5665.00    1.85448   1.75598   -1.000
 5666.00    1.86258   1.76947   -1.000
 5667.00    1.85311   1.76692   -1.000
 5668.00    1.84153   1.75525   -1.000
 5669.00    1.83224   1.74763   -1.000
 5670.00    1.84330   1.75022   -1.000
 5671.00    1.85415   1.76104   -1.000
 5672.00    1.87579   1.77724   -1.000
 5673.00    1.89065   1.79552   -1.000
 5674.00    1.90632   1.80947   -1.000
 5675.00    1.91005   1.81525   -1.000
 5676.00    1.89941   1.81591   -1.000
 5677.00    1.90660   1.81553   -1.000
 5678.00    1.90784   1.81397   -1.000
 5679.00    1.90984   1.80831   -1.000
 5680.00    1.89720   1.79773   -1.000
 5681.00    1.88408   1.78369   -1.000
 5682.00    1.86020   1.76660   -1.000
 5683.00    1.83249   1.74895   -1.000
 5684.00    1.82413   1.73948   -1.000
 5685.00    1.83943   1.74231   -1.000
 5686.00    1.84301   1.74807   -1.000
 5687.00    1.83102   1.74676   -1.000
 5688.00    1.81602   1.74110   -1.000
 5689.00    1.82220   1.74147   -1.000
 5690.00    1.84206   1.75386   -1.000
 5691.00    1.86814   1.77397   -1.000
 5692.00    1.88721   1.79279   -1.000
 5693.00    1.90098   1.80452   -1.000
 5694.00    1.90916   1.80810   -1.000
 5695.00    1.90246   1.80650   -1.000
 5696.00    1.89657   1.80279   -1.000
 5697.00    1.89471   1.79639   -1.000
 5698.00    1.87657   1.78543   -1.000
 5699.00    1.85191   1.77108   -1.000
 5700.00    1.83430   1.75711   -1.000
 5701.00    1.81590   1.74509   -1.000
 5702.00    1.80471   1.73697   -1.000
 5703.00    1.80937   1.73837   -1.000
 5704.00    1.82518   1.74807   -1.000
 5705.00    1.83193   1.75429   -1.000
 5706.00    1.81634   1.74737   -1.000
 5707.00    1.79215   1.72744   -1.000
 5708.00    1.76659   1.70270   -1.000
 5709.00    1.73826   1.68170   -1.000
 5710.00    1.72482   1.66936   -1.000
 5711.00    1.73190   1.66914   -1.000
 5712.00    1.75903   1.68261   -1.000
 5713.00    1.81075   1.71023   -1.000
 5714.00    1.85714   1.74706   -1.000
 5715.00    1.87225   1.77876   -1.000
 5716.00    1.88224   1.79666   -1.000
 5717.00    1.88478   1.80569   -1.000
 5718.00    1.88921   1.81234   -1.000
 5719.00    1.89461   1.81942   -1.000
 5720.00    1.91565   1.82806   -1.000
 5721.00    1.93082   1.83785   -1.000
 5722.00    1.93930   1.84696   -1.000
 5723.00    1.94791   1.85383   -1.000
 5724.00    1.93648   1.85694   -1.000
 5725.00    1.92803   1.85285   -1.000
 5726.00    1.91045   1.83923   -1.000
 5727.00    1.89078   1.82164   -1.000
 5728.00    1.88760   1.81174   -1.000
 5729.00    1.89474   1.81435   -1.000
 5730.00    1.90094   1.82056   -1.000
 5731.00    1.89166   1.82032   -1.000
 5732.00    1.88631   1.81715   -1.000
 5733.00    1.89159   1.82113   -1.000
 5734.00    1.91431   1.83454   -1.000
 5735.00    1.92790   1.84819   -1.000
 5736.00    1.92180   1.85205   -1.000
 5737.00    1.91519   1.84697   -1.000
 5738.00    1.91283   1.84003   -1.000
 5739.00    1.91193   1.83618   -1.000
 5740.00    1.90808   1.83553   -1.000
 5741.00    1.91005   1.83488   -1.000
 5742.00    1.89727   1.83273   -1.000
 5743.00    1.89474   1.83178   -1.000
 5744.00    1.91746   1.83636   -1.000
 5745.00    1.93042   1.84571   -1.000
 5746.00    1.92281   1.85112   -1.000
 5747.00    1.90456   1.84512   -1.000
 5748.00    1.89670   1.83267   -1.000
 5749.00    1.89592   1.82795   -1.000
 5750.00    1.90113   1.83492   -1.000
 5751.00    1.91438   1.83965   -1.000
 5752.00    1.89650   1.82731   -1.000
 5753.00    1.85596   1.79954   -1.000
 5754.00    1.83566   1.77663   -1.000
 5755.00    1.84569   1.77793   -1.000
 5756.00    1.88573   1.80345   -1.000
 5757.00    1.92146   1.83621   -1.000
 5758.00    1.94131   1.85719   -1.000
 5759.00    1.93219   1.85818   -1.000
 5760.00    1.91014   1.84184   -1.000
 5761.00    1.88633   1.81704   -1.000
 5762.00    1.86364   1.79478   -1.000
 5763.00    1.85326   1.78630   -1.000
 5764.00    1.87517   1.79932   -1.000
 5765.00    1.90607   1.82935   -1.000
 5766.00    1.92695   1.85845   -1.000
 5767.00    1.93555   1.87339   -1.000
 5768.00    1.94059   1.87658   -1.000
 5769.00    1.93931   1.87436   -1.000
 5770.00    1.93055   1.86937   -1.000
 5771.00    1.91293   1.86250   -1.000
 5772.00    1.90204   1.85445   -1.000
 5773.00    1.89832   1.84600   -1.000
 5774.00    1.88734   1.83889   -1.000
 5775.00    1.88891   1.83531   -1.000
 5776.00    1.88261   1.83654   -1.000
 5777.00    1.87768   1.84085   78.914
 5778.00    1.86229   1.84114   79.203
 5779.00    1.82260   1.82880   80.489
 5780.00    1.78513   1.80148   82.396
 5781.00    1.75992   1.76759   83.342
 5782.00    1.77109   1.74113   83.036
 5783.00    1.79232   1.73047   -1.000
 5784.00    1.80725   1.73194   -1.000
 5785.00    1.81860   1.73671   -1.000
 5786.00    1.83326   1.74632   -1.000
 5787.00    1.85498   1.76785   -1.000
 5788.00    1.87755   1.79500   -1.000
 5789.00    1.89684   1.81361   -1.000
 5790.00    1.89511   1.81837   -1.000
 5791.00    1.88493   1.81482   -1.000
 5792.00    1.88677   1.81444   -1.000
 5793.00    1.89573   1.82493   -1.000
 5794.00    1.90342   1.84327   -1.000
 5795.00    1.91113   1.85918   -1.000
 5796.00    1.90993   1.86362   -1.000
 5797.00    1.89431   1.85516   -1.000
 5798.00    1.89330   1.84394   -1.000
 5799.00    1.90949   1.84473   -1.000
 5800.00    1.93443   1.86073   -1.000
 5801.00    1.95843   1.88113   -1.000
 5802.00    1.95849   1.89210   -1.000
 5803.00    1.94630   1.88724   -1.000
 5804.00    1.92967   1.87041   -1.000
 5805.00    1.91361   1.85262   -1.000
 5806.00    1.90392   1.84414   -1.000
 5807.00    1.91412   1.84656   -1.000
 5808.00    1.91707   1.85473   -1.000
 5809.00    1.92729   1.86331   -1.000
 5810.00    1.93445   1.87055   -1.000
 5811.00    1.94104   1.87647   -1.000
 5812.00    1.95955   1.87944   -1.000
 5813.00    1.95435   1.87685   -1.000
 5814.00    1.94681   1.86745   -1.000
 5815.00    1.93382   1.85306   -1.000
 5816.00    1.92351   1.84011   -1.000
 5817.00    1.92533   1.83863   -1.000
 5818.00    1.94329   1.85278   -1.000
 5819.00    1.96844   1.87346   -1.000
 5820.00    1.97616   1.88861   -1.000
 5821.00    1.97725   1.89408   -1.000
 5822.00    1.97637   1.89219   -1.000
 5823.00    1.97127   1.88740   -1.000
 5824.00    1.96263   1.88359   -1.000
 5825.00    1.96891   1.88250   -1.000
 5826.00    1.96922   1.88371   -1.000
 5827.00    1.97601   1.88620   -1.000
 5828.00    1.97904   1.88956   -1.000
 5829.00    1.97617   1.89360   -1.000
 5830.00    1.97345   1.89681   -1.000
 5831.00    1.97545   1.89714   -1.000
 5832.00    1.96909   1.89456   -1.000
 5833.00    1.96999   1.89000   -1.000
 5834.00    1.96778   1.88349   -1.000
 5835.00    1.96127   1.87706   -1.000
 5836.00    1.95649   1.87505   -1.000
 5837.00    1.96663   1.87729   -1.000
 5838.00    1.97087   1.87914   -1.000
 5839.00    1.96865   1.88086   -1.000
 5840.00    1.97372   1.88666   -1.000
 5841.00    1.97613   1.89581   -1.000
 5842.00    1.97354   1.90316   -1.000
 5843.00    1.97515   1.90473   -1.000
 5844.00    1.97381   1.89979   -1.000
 5845.00    1.97066   1.88971   -1.000
 5846.00    1.95756   1.87647   -1.000
 5847.00    1.94461   1.86321   -1.000
 5848.00    1.93774   1.85460   -1.000
 5849.00    1.93945   1.85328   -1.000
 5850.00    1.94839   1.85514   -1.000
 5851.00    1.94530   1.85148   -1.000
 5852.00    1.92294   1.83774   -1.000
 5853.00    1.90080   1.82012   -1.000
 5854.00    1.89306   1.80858   -1.000
 5855.00    1.89616   1.80457   -1.000
 5856.00    1.89051   1.79804   -1.000
 5857.00    1.86912   1.78086   -1.000
 5858.00    1.85479   1.76280   -1.000
 5859.00    1.86442   1.76154   -1.000
 5860.00    1.89698   1.77998   -1.000
 5861.00    1.91674   1.80426   -1.000
 5862.00    1.91801   1.82086   -1.000
 5863.00    1.91588   1.82873   -1.000
 5864.00    1.92769   1.83282   -1.000
 5865.00    1.93458   1.83392   -1.000
 5866.00    1.92289   1.82962   -1.000
 5867.00    1.90835   1.82306   -1.000
 5868.00    1.91724   1.82395   -1.000
 5869.00    1.93759   1.83685   -1.000
 5870.00    1.96172   1.85358   -1.000
 5871.00    1.96445   1.86360   -1.000
 5872.00    1.96206   1.86438   -1.000
 5873.00    1.96546   1.86038   -1.000
 5874.00    1.96313   1.85715   -1.000
 5875.00    1.96317   1.85621   -1.000
 5876.00    1.94999   1.85533   -1.000
 5877.00    1.94596   1.85088   -1.000
 5878.00    1.94506   1.84087   -1.000
 5879.00    1.92887   1.82696   -1.000
 5880.00    1.91413   1.81351   -1.000
 5881.00    1.91164   1.80511   -1.000
 5882.00    1.92067   1.80303   -1.000
 5883.00    1.92575   1.80308   -1.000
 5884.00    1.91447   1.80046   -1.000
 5885.00    1.89249   1.79646   -1.000
 5886.00    1.86918   1.78942   -1.000
 5887.00    1.79414   1.76171   84.593
 5888.00    1.62270   1.69213   -1.000
 5889.00    1.44053   1.58573   -1.000
 5890.00    1.37790   1.48872   -1.000
 5891.00    1.44778   1.45701   94.256
 5892.00    1.60101   1.49819   -1.000
 5893.00    1.66941   1.56254   -1.000
 5894.00    1.62663   1.59217   -1.000
 5895.00    1.53687   1.57117   93.041
 5896.00    1.50286   1.53281   92.248
 5897.00    1.59325   1.52882   -1.000
 5898.00    1.72168   1.57893   -1.000
 5899.00    1.81219   1.65020   -1.000
 5900.00    1.86104   1.70699   -1.000
 5901.00    1.89639   1.74572   -1.000
 5902.00    1.91836   1.77272   -1.000
 5903.00    1.92197   1.78943   -1.000
 5904.00    1.92254   1.79744   -1.000
 5905.00    1.91666   1.80020   -1.000
 5906.00    1.91484   1.80174   -1.000
 5907.00    1.92048   1.80584   -1.000
 5908.00    1.92395   1.81333   -1.000
 5909.00    1.92410   1.82085   -1.000
 5910.00    1.92329   1.82567   -1.000
 5911.00    1.92800   1.82761   -1.000
 5912.00    1.92325   1.82402   -1.000
 5913.00    1.89907   1.81114   -1.000
 5914.00    1.87626   1.79113   -1.000
 5915.00    1.86057   1.77365   -1.000
 5916.00    1.86491   1.76827   -1.000
 5917.00    1.88654   1.77633   -1.000
 5918.00    1.89267   1.79183   -1.000
 5919.00    1.89968   1.80747   -1.000
 5920.00    1.91225   1.81769   -1.000
 5921.00    1.90987   1.82108   -1.000
 5922.00    1.90882   1.82004   -1.000
 5923.00    1.91643   1.81938   -1.000
 5924.00    1.92073   1.82240   -1.000
 5925.00    1.92858   1.82837   -1.000
 5926.00    1.93199   1.83441   -1.000
 5927.00    1.93527   1.83664   -1.000
 5928.00    1.91810   1.83140   -1.000
 5929.00    1.90539   1.81925   -1.000
 5930.00    1.89919   1.80810   -1.000
 5931.00    1.90165   1.80780   -1.000
 5932.00    1.91827   1.81780   -1.000
 5933.00    1.91991   1.82501   -1.000
 5934.00    1.91743   1.82103   -1.000
 5935.00    1.91098   1.81319   -1.000
 5936.00    1.91128   1.81323   -1.000
 5937.00    1.92080   1.82378   -1.000
 5938.00    1.92216   1.83665   -1.000
 5939.00    1.92460   1.84217   -1.000
 5940.00    1.92243   1.83668   -1.000
 5941.00    1.90875   1.82331   -1.000
 5942.00    1.89894   1.81094   -1.000
 5943.00    1.90468   1.80849   -1.000
 5944.00    1.91687   1.81725   -1.000
 5945.00    1.92696   1.82986   -1.000
 5946.00    1.92091   1.83744   -1.000
 5947.00    1.91898   1.83450   -1.000
 5948.00    1.90559   1.82210   -1.000
 5949.00    1.88331   1.80977   -1.000
 5950.00    1.89295   1.80726   -1.000
 5951.00    1.90838   1.81214   -1.000
 5952.00    1.89822   1.81345   -1.000
 5953.00    1.89533   1.80991   -1.000
 5954.00    1.89424   1.80939   -1.000
 5955.00    1.89592   1.81266   -1.000
 5956.00    1.89855   1.81283   -1.000
 5957.00    1.88971   1.80850   -1.000
 5958.00    1.89004   1.80731   -1.000
 5959.00    1.90894   1.81609   -1.000
 5960.00    1.92680   1.83196   -1.000
 5961.00    1.94155   1.84697   -1.000
 5962.00    1.95581   1.85614   -1.000
 5963.00    1.94989   1.85836   -1.000
 5964.00    1.93710   1.85493   -1.000
 5965.00    1.92632   1.84795   -1.000
 5966.00    1.91707   1.84127   -1.000
 5967.00    1.91934   1.84001   -1.000
 5968.00    1.93118   1.84542   -1.000
 5969.00    1.93943   1.85293   -1.000
 5970.00    1.94675   1.85926   -1.000
 5971.00    1.95225   1.86446   -1.000
 5972.00    1.94667   1.86734   -1.000
 5973.00    1.94147   1.86575   -1.000
 5974.00    1.94033   1.85828   -1.000
 5975.00    1.93011   1.84428   -1.000
 5976.00    1.90003   1.82627   -1.000
 5977.00    1.87815   1.81181   -1.000
 5978.00    1.88378   1.80830   -1.000
 5979.00    1.89881   1.81667   -1.000
 5980.00    1.91241   1.83117   -1.000
 5981.00    1.92585   1.84198   -1.000
 5982.00    1.92600   1.84017   -1.000
 5983.00    1.90229   1.82429   -1.000
 5984.00    1.87455   1.80374   -1.000
 5985.00    1.86906   1.79275   -1.000
 5986.00    1.88399   1.79821   -1.000
 5987.00    1.90693   1.81411   -1.000
 5988.00    1.91890   1.82948   -1.000
 5989.00    1.92200   1.83964   -1.000
 5990.00    1.92924   1.84400   -1.000
 5991.00    1.91465   1.84340   -1.000
 5992.00    1.91324   1.84343   -1.000
 5993.00    1.92592   1.85097   -1.000
 5994.00    1.94124   1.86292   -1.000
 5995.00    1.93534   1.86814   -1.000
 5996.00    1.93077   1.86130   -1.000
 5997.00    1.91377   1.84739   -1.000
 5998.00    1.89654   1.83642   -1.000
 5999.00    1.90296   1.83462   -1.000
 6000.00    1.91381   1.83963   -1.000
 6001.00    1.91989   1.84372   -1.000
 6002.00    1.90566   1.84149   -1.000
 6003.00    1.89074   1.83516   -1.000
 6004.00    1.88710   1.83132   -1.000
 6005.00    1.89763   1.83146   -1.000
 6006.00    1.89814   1.82718   -1.000
 6007.00    1.86732   1.81309   -1.000
 6008.00    1.84890   1.79832   -1.000
 6009.00    1.85529   1.79792   -1.000
 6010.00    1.87818   1.81485   -1.000
 6011.00    1.90351   1.83375   -1.000
 6012.00    1.90169   1.83810   -1.000
 6013.00    1.88668   1.83028   -1.000
 6014.00    1.88908   1.82264   -1.000
 6015.00    1.89416   1.82085   -1.000
 6016.00    1.89040   1.82165   -1.000
 6017.00    1.88681   1.82064   -1.000
 6018.00    1.88668   1.81869   -1.000
 6019.00    1.88012   1.81578   -1.000
 6020.00    1.87000   1.80951   -1.000
 6021.00    1.85705   1.80330   -1.000
 6022.00    1.86825   1.80372   -1.000
 6023.00    1.87080   1.81067   -1.000
 6024.00    1.87598   1.82024   -1.000
 6025.00    1.88655   1.83145   -1.000
 6026.00    1.89572   1.84361   -1.000
 6027.00    1.91149   1.85378   -1.000
 6028.00    1.91626   1.86165   -1.000
 6029.00    1.91776   1.86964   -1.000
 6030.00    1.92919   1.87635   -1.000
 6031.00    1.93729   1.87996   -1.000
 6032.00    1.93110   1.88317   -1.000
 6033.00    1.94162   1.88795   -1.000
 6034.00    1.94877   1.89257   -1.000
 6035.00    1.93879   1.89546   -1.000
 6036.00    1.93825   1.89671   -1.000
 6037.00    1.93916   1.89581   -1.000
 6038.00    1.93694   1.89196   -1.000
 6039.00    1.93248   1.88556   -1.000
 6040.00    1.92470   1.87873   -1.000
 6041.00    1.91872   1.87474   -1.000
 6042.00    1.91641   1.87527   -1.000
 6043.00    1.92166   1.88004   -1.000
 6044.00    1.93448   1.88835   -1.000
 6045.00    1.94111   1.89775   -1.000
 6046.00    1.94360   1.90456   -1.000
 6047.00    1.94580   1.90817   -1.000
 6048.00    1.94204   1.91038   78.879
 6049.00    1.93972   1.91189   79.185
 6050.00    1.93818   1.91233   79.339
 6051.00    1.94630   1.91086   79.397
 6052.00    1.94648   1.90593   -1.000
 6053.00    1.94308   1.89741   -1.000
 6054.00    1.93380   1.88716   -1.000
 6055.00    1.92130   1.87713   -1.000
 6056.00    1.90999   1.86905   -1.000
 6057.00    1.91101   1.86605   -1.000
 6058.00    1.91380   1.87018   -1.000
 6059.00    1.92498   1.87897   -1.000
 6060.00    1.92533   1.88730   -1.000
 6061.00    1.98128   1.89042   -1.000
 6062.00    1.66126   1.88442   -1.000
 6063.00    0.96572   1.86816   -1.000
 6064.00    1.92919   1.84601   -1.000
 6065.00    1.82767   1.82901  139.875
 6066.00    1.20710   1.82929   -1.000
 6067.00    0.46983   1.84955   -1.000
 6068.00    1.36669   1.87846   -1.000
 6069.00    1.91645   1.90166   80.095
 6070.00    1.92765   1.91402   77.642
 6071.00    1.91812   1.91907   76.812
 6072.00    1.82983   1.91927   -1.000
 6073.00    1.93373   1.91517   79.184
 6074.00    1.95451   1.91163   -1.000
 6075.00    1.93994   1.91207   79.532
 6076.00    1.93214   1.90854   79.964
 6077.00    1.92166   1.89620   80.426
 6078.00    1.91414   1.88002   81.080
 6079.00    1.89117   1.86744   81.548
 6080.00    1.88508   1.86123   81.525
 6081.00    1.89353   1.85679   -1.000
 6082.00    1.88098   1.85111   81.874
 6083.00    1.87744   1.84790   81.826
 6084.00    1.87458   1.84919   81.764
 6085.00    1.88422   1.85218   81.673
 6086.00    1.88273   1.85587   81.412
 6087.00    1.88807   1.86119   81.072
 6088.00    1.88781   1.86562   81.311
 6089.00    1.88873   1.86403   81.847
 6090.00    1.87351   1.85573   82.164
 6091.00    1.85798   1.84698   82.066
 6092.00    1.86172   1.84457   81.470
 6093.00    1.87472   1.84993   81.093
 6094.00    1.88157   1.86054   80.620
 6095.00    1.90087   1.87216   80.289
 6096.00    1.90744   1.88006   80.374
 6097.00    1.90524   1.88367   80.595
 6098.00    1.90867   1.88672   80.620
 6099.00    1.90287   1.88950   80.623
 6100.00    1.89589   1.88336   81.739
 6101.00    1.87527   1.85830   83.893
 6102.00    1.82720   1.81869   85.109
 6103.00    1.79958   1.78840   84.218
 6104.00    1.82450   1.78988   82.495
 6105.00    1.86136   1.81713   -1.000
 6106.00    1.88601   1.84670   -1.000
 6107.00    1.89154   1.86413   81.551
 6108.00    1.88032   1.87171   81.724
 6109.00    1.88067   1.87729   81.659
 6110.00    1.88624   1.88220   81.464
 6111.00    1.88557   1.88350   81.079
 6112.00    1.88926   1.88342   81.119
 6113.00    1.89142   1.88693   80.615
 6114.00    1.89672   1.89311   80.467
 6115.00    1.90033   1.89577   80.849
 6116.00    1.88813   1.89266   81.411
 6117.00    1.88023   1.88834   81.455
 6118.00    1.88445   1.88366   81.904
 6119.00    1.87789   1.87075   83.210
 6120.00    1.84918   1.84572   84.254
 6121.00    1.81867   1.81570   85.019
 6122.00    1.80179   1.79404   84.982
 6123.00    1.80007   1.79339   83.404
 6124.00    1.83237   1.81339   82.401
 6125.00    1.86468   1.83758   82.519
 6126.00    1.85478   1.85062   83.058
 6127.00    1.84950   1.85199   82.855
 6128.00    1.85045   1.85047   82.677
 6129.00    1.85276   1.85455   81.926
 6130.00    1.86206   1.86683   81.147
 6131.00    1.88015   1.88266   81.068
 6132.00    1.89220   1.89440   81.260
 6133.00    1.87572   1.89464   82.120
 6134.00    1.86556   1.87592   84.137
 6135.00    1.82766   1.83339   86.708
 6136.00    1.77048   1.77665   88.820
 6137.00    1.72168   1.73456   88.799
 6138.00    1.72628   1.73389   86.251
 6139.00    1.77774   1.76952   83.809
 6140.00    1.82391   1.80928   83.094
 6141.00    1.83741   1.82864   83.369
 6142.00    1.82880   1.83316   83.485
 6143.00    1.83268   1.84311   82.497
 6144.00    1.86238   1.86240   81.504
 6145.00    1.87304   1.87921   81.509
 6146.00    1.87166   1.88507   81.943
 6147.00    1.86249   1.88060   82.479
 6148.00    1.85797   1.87013   83.087
 6149.00    1.84339   1.85826   83.552
 6150.00    1.83141   1.84975   83.489
 6151.00    1.83550   1.84828   83.144
 6152.00    1.83626   1.85342   82.525
 6153.00    1.85205   1.85886   82.503
 6154.00    1.84836   1.85750   83.318
 6155.00    1.83902   1.84938   83.686
 6156.00    1.83108   1.84149   83.698
 6157.00    1.83212   1.83790   84.099
 6158.00    1.82967   1.83418   85.072
 6159.00    1.80707   1.81992   86.800
 6160.00    1.77309   1.78492   89.582
 6161.00    1.72852   1.73165   92.143
 6162.00    1.67580   1.68199   92.766
 6163.00    1.66036   1.66202   91.090
 6164.00    1.69227   1.67955   88.432
 6165.00    1.73008   1.71749   87.266
 6166.00    1.76093   1.75273   87.010
 6167.00    1.76479   1.77012   87.313
 6168.00    1.75855   1.76576   88.590
 6169.00    1.72849   1.74710   89.424
 6170.00    1.71000   1.73425   88.535
 6171.00    1.73196   1.74388   86.682
 6172.00    1.77489   1.77083   85.566
 6173.00    1.79038   1.79647   85.834
 6174.00    1.79330   1.81043   85.870
 6175.00    1.79679   1.81617   85.619
 6176.00    1.79738   1.81877   85.471
 6177.00    1.80000   1.82155   85.225
 6178.00    1.80900   1.82701   84.774
 6179.00    1.81590   1.83403   84.490
 6180.00    1.81592   1.84005   84.223
 6181.00    1.82075   1.84601   83.809
 6182.00    1.82685   1.85371   83.630
 6183.00    1.83266   1.85982   83.855
 6184.00    1.84261   1.85981   84.162
 6185.00    1.83257   1.85239   84.897
 6186.00    1.81818   1.83864   85.862
 6187.00    1.80538   1.82224   86.734
 6188.00    1.79098   1.80704   87.550
 6189.00    1.77383   1.79140   88.150
 6190.00    1.76161   1.77063   89.406
 6191.00    1.73442   1.74975   89.858
 6192.00    1.72412   1.74467   88.620
 6193.00    1.74980   1.76405   86.248
 6194.00    1.78583   1.79687   84.992
 6195.00    1.80682   1.82601   84.586
 6196.00    1.82141   1.84294   84.507
 6197.00    1.83063   1.84698   85.167
 6198.00    1.81313   1.83834   86.219
 6199.00    1.78738   1.82133   -1.000
 6200.00    1.76672   1.80822   -1.000
 6201.00    1.76009   1.81062   -1.000
 6202.00    1.77995   1.82659   -1.000
 6203.00    1.80575   1.84471   -1.000
 6204.00    1.81477   1.85676   -1.000
 6205.00    1.81952   1.86182   -1.000
 6206.00    1.83790   1.86420   84.352
 6207.00    1.83636   1.86687   84.733
 6208.00    1.83137   1.86876   -1.000
 6209.00    1.83345   1.86680   -1.000
 6210.00    1.82236   1.85890   -1.000
 6211.00    1.80798   1.84415   -1.000
 6212.00    1.79367   1.82160   87.477
 6213.00    1.76720   1.79300   88.894
 6214.00    1.73596   1.76696   -1.000
 6215.00    1.72938   1.75388   89.833
 6216.00    1.73919   1.75560   88.430
 6217.00    1.75872   1.76479   88.171
 6218.00    1.76903   1.77047   89.005
 6219.00    1.75557   1.76794   88.474
 6220.00    1.73759   1.76285   87.797
 6221.00    1.74713   1.76476   88.553
 6222.00    1.80265   1.77499   96.266
 6223.00    1.61942   1.78620   -1.000
 6224.00    1.54314   1.79361   -1.000
 6225.00    1.80600   1.79807   87.497
 6226.00    1.78939   1.80089   87.490
 6227.00    1.79101   1.79923   88.071
 6228.00    1.77668   1.78701   89.382
 6229.00    1.75051   1.76103   90.898
 6230.00    1.70813   1.72897   91.994
 6231.00    1.68930   1.70834   91.357
 6232.00    1.70406   1.71254   89.930
 6233.00    1.73586   1.73839   88.175
 6234.00    1.76504   1.77287   86.789
 6235.00    1.78847   1.80149   86.545
 6236.00    1.79800   1.81456   87.263
 6237.00    1.78499   1.80985   88.176
 6238.00    1.76411   1.79395   -1.000
 6239.00    1.74848   1.77563   90.028
 6240.00    1.73206   1.76096   -1.000
 6241.00    1.73221   1.75200   90.220
 6242.00    1.72722   1.74545   91.006
 6243.00    1.70575   1.73663   -1.000
 6244.00    1.69356   1.72720   -1.000
 6245.00    1.70185   1.72335   90.763
 6246.00    1.71444   1.72960   89.821
 6247.00    1.73299   1.74730   88.641
 6248.00    1.75744   1.77195   87.755
 6249.00    1.76745   1.79180   87.790
 6250.00    1.75546   1.79628   -1.000
 6251.00    1.74060   1.78183   -1.000
 6252.00    1.71916   1.75518   -1.000
 6253.00    1.68794   1.73027   -1.000
 6254.00    1.67688   1.71739   -1.000
 6255.00    1.67656   1.71371   -1.000
 6256.00    1.67025   1.71019   -1.000
 6257.00    1.65633   1.70294   -1.000
 6258.00    1.65741   1.69813   -1.000
 6259.00    1.66708   1.70513   -1.000
 6260.00    1.69687   1.72583   -1.000
 6261.00    1.71846   1.75417   -1.000
 6262.00    1.73964   1.78151   -1.000
 6263.00    1.75551   1.80028   -1.000
 6264.00    1.75948   1.80617   -1.000
 6265.00    1.74383   1.80305   -1.000
 6266.00    1.74017   1.80091   -1.000
 6267.00    1.73941   1.80456   -1.000
 6268.00    1.74314   1.80916   -1.000
 6269.00    1.74086   1.80865   -1.000
 6270.00    1.72874   1.80569   -1.000
 6271.00    1.73576   1.80659   -1.000
 6272.00    1.74936   1.81188   -1.000
 6273.00    1.75561   1.81625   -1.000
 6274.00    1.74396   1.81418   -1.000
 6275.00    1.72490   1.80472   -1.000
 6276.00    1.69824   1.79026   -1.000
 6277.00    1.67115   1.77283   -1.000
 6278.00    1.65157   1.75352   -1.000
 6279.00    1.62718   1.73530   -1.000
 6280.00    1.61345   1.72323   -1.000
 6281.00    1.60088   1.72400   -1.000
 6282.00    1.60162   1.73903   -1.000
 6283.00    1.62311   1.76297   -1.000
 6284.00    1.64920   1.78778   -1.000
 6285.00    1.67867   1.80800   -1.000
 6286.00    1.70715   1.82330   -1.000
 6287.00    1.73693   1.83514   -1.000
 6288.00    1.74905   1.84231   -1.000
 6289.00    1.75925   1.84192   -1.000
 6290.00    1.75990   1.83307   -1.000
 6291.00    1.75000   1.82049   -1.000
 6292.00    1.73742   1.81017   -1.000
 6293.00    1.73211   1.80504   -1.000
 6294.00    1.73667   1.80269   -1.000
 6295.00    1.73060   1.79735   -1.000
 6296.00    1.72197   1.78578   -1.000
 6297.00    1.71469   1.77254   -1.000
 6298.00    1.70641   1.76577   -1.000
 6299.00    1.70490   1.76586   -1.000
 6300.00    1.70977   1.76534   -1.000
 6301.00    1.70326   1.76012   -1.000
 6302.00    1.69608   1.75626   -1.000
 6303.00    1.70100   1.76277   -1.000
 6304.00    1.71961   1.77966   -1.000
 6305.00    1.73685   1.79947   -1.000
 6306.00    1.74532   1.81765   -1.000
 6307.00    1.75361   1.83309   -1.000
 6308.00    1.76593   1.84354   -1.000
 6309.00    1.76906   1.84543   -1.000
 6310.00    1.75447   1.83965   -1.000
 6311.00    1.73785   1.83110   -1.000
 6312.00    1.73333   1.82353   -1.000
 6313.00    1.73411   1.81609   -1.000
 6314.00    1.72019   1.80578   -1.000
 6315.00    1.70395   1.79306   -1.000
 6316.00    1.69339   1.78248   -1.000
 6317.00    1.68685   1.77640   -1.000
 6318.00    1.69720   1.77417   -1.000
 6319.00    1.69739   1.77927   -1.000
 6320.00    1.71740   1.79387   -1.000
 6321.00    1.73494   1.81170   -1.000
 6322.00    1.74438   1.82567   -1.000
 6323.00    1.74863   1.83709   -1.000
 6324.00    1.75272   1.84852   -1.000
 6325.00    1.77086   1.85801   -1.000
 6326.00    1.78802   1.86269   -1.000
 6327.00    1.78309   1.86322   -1.000
 6328.00    1.77519   1.86261   -1.000
 6329.00    1.77609   1.86266   -1.000
 6330.00    1.77810   1.86324   -1.000
 6331.00    1.78408   1.86592   -1.000
 6332.00    1.78598   1.87084   -1.000
 6333.00    1.79024   1.87060   -1.000
 6334.00    1.78700   1.85685   -1.000
 6335.00    1.59232   1.83240   -1.000
 6336.00    1.64131   1.81112   -1.000
 6337.00    1.73553   1.80565   -1.000
 6338.00    1.73552   1.81655   -1.000
 6339.00    1.75301   1.83509   -1.000
 6340.00    1.77111   1.85336   -1.000
 6341.00    1.78223   1.86502   -1.000
 6342.00    1.78605   1.86535   -1.000
 6343.00    1.77493   1.85601   -1.000
 6344.00    1.76678   1.84634   -1.000
 6345.00    1.76586   1.84586   -1.000
 6346.00    1.77661   1.85618   -1.000
 6347.00    1.78554   1.87124   -1.000
 6348.00    1.79289   1.88503   -1.000
 6349.00    1.79949   1.89542   -1.000
 6350.00    1.81370   1.90168   -1.000
 6351.00    1.81914   1.90303   -1.000
 6352.00    1.79995   1.89854   -1.000
 6353.00    1.79471   1.88724   -1.000
 6354.00    1.78284   1.87142   -1.000
 6355.00    1.76328   1.85704   -1.000
 6356.00    1.76129   1.84824   -1.000
 6357.00    1.75174   1.84076   -1.000
 6358.00    1.74227   1.82916   -1.000
 6359.00    1.73032   1.81593   -1.000
 6360.00    1.72151   1.80622   -1.000
 6361.00    1.72736   1.80027   -1.000
 6362.00    1.72783   1.79703   -1.000
 6363.00    1.73191   1.79868   -1.000
 6364.00    1.74304   1.80713   -1.000
 6365.00    1.75562   1.82139   -1.000
 6366.00    1.75765   1.83847   -1.000
 6367.00    1.76189   1.85538   -1.000
 6368.00    1.77337   1.86880   -1.000
 6369.00    1.78565   1.87670   -1.000
 6370.00    1.79126   1.88015   -1.000
 6371.00    1.79078   1.88397   -1.000
 6372.00    1.79383   1.89064   -1.000
 6373.00    1.79970   1.89833   -1.000
 6374.00    1.80139   1.90355   -1.000
 6375.00    1.79546   1.90423   -1.000
 6376.00    1.78812   1.90095   -1.000
 6377.00    1.77554   1.89468   -1.000
 6378.00    1.76297   1.88606   -1.000
 6379.00    1.75752   1.87722   -1.000
 6380.00    1.75527   1.87118   -1.000
 6381.00    1.75592   1.86923   -1.000
 6382.00    1.75371   1.87111   -1.000
 6383.00    1.75536   1.87462   -1.000
 6384.00    1.76404   1.87756   -1.000
 6385.00    1.76107   1.88038   -1.000
 6386.00    1.74985   1.88455   -1.000
 6387.00    1.75206   1.88922   -1.000
 6388.00    1.75254   1.89204   -1.000
 6389.00    1.74303   1.89192   -1.000
 6390.00    1.73132   1.88719   -1.000
 6391.00    1.71717   1.87421   -1.000
 6392.00    1.69518   1.85263   -1.000
 6393.00    1.66605   1.83167   -1.000
 6394.00    1.65153   1.82639   -1.000
 6395.00    1.66305   1.84240   -1.000
 6396.00    1.68376   1.86766   -1.000
 6397.00    1.68287   1.88180   -1.000
 6398.00    1.65981   1.87426   -1.000
 6399.00    1.62916   1.84951   -1.000
 6400.00    1.60506   1.82733   -1.000
 6401.00    1.59615   1.82813   -1.000
 6402.00    1.61707   1.85359   -1.000
 6403.00    1.64032   1.88624   -1.000
 6404.00    1.64607   1.90724   -1.000
 6405.00    1.64015   1.91094   -1.000
 6406.00    1.61815   1.90007   -1.000
 6407.00    1.60479   1.88336   -1.000
 6408.00    1.58597   1.87156   -1.000
 6409.00    1.56067   1.86941   -1.000
 6410.00    1.56108   1.87038   -1.000
 6411.00    1.55399   1.86803   -1.000
 6412.00    1.53103   1.86546   -1.000
 6413.00    1.52328   1.86778   -1.000
 6414.00    1.52269   1.87418   -1.000
 6415.00    1.52248   1.88149   -1.000
 6416.00    1.51919   1.88674   -1.000
 6417.00    1.51020   1.88689   -1.000
 6418.00    1.49812   1.87884   -1.000
 6419.00    1.47461   1.86238   -1.000
 6420.00    1.44340   1.84400   -1.000
 6421.00    1.41873   1.83635   -1.000
 6422.00    1.40951   1.84734   -1.000
 6423.00    1.41714   1.87209   -1.000
 6424.00    1.42798   1.89627   -1.000
 6425.00    1.42679   1.91195   -1.000
 6426.00    1.42088   1.92069   -1.000
 6427.00    1.40794   1.92362   -1.000
 6428.00    1.39197   1.91645   -1.000
