###################################################################
## OUTPUT of StarlightChains_v04.for    [Cid@UFSC - 01/Apr/2007] ##
###################################################################

## Some input info
NGC6284_a_2.cxt                          [arq_obs]
Base.BC03.S                              [arq_base]
NGC6284_a_2.msk                          [arq_masks]
StCv04.C99.config                        [arq_config]
  150                                    [N_base]
    0                                    [N_YAV_components = # of components with extra extinction!]
    0                                    [i_FitPowerLaw (1/0 = Yes/No)]
-9.99                                    [alpha_PowerLaw]
CCM                                      [red_law_option]
 1.458241                                [q_norm = A(l_norm)/A(V)]

## (Re)Sampling Parameters
 3359.00                                 [l_ini (A)]
 6428.00                                 [l_fin (A)]
    1.00                                 [dl    (A)]     (OBS: dl_cushion =    50.00 A)

## Normalization info
 4020.00                                 [l_norm (A) - for base]
 4010.00                                 [llow_norm (A) - window for f_obs]
 4060.00                                 [lupp_norm (A) - window for f_obs]
1.360561E-14                             [fobs_norm (in input units)]

## S/N
 4730.00                                 [llow_SN (A) - window for S/N]
 4780.00                                 [lupp_SN (A) - window for S/N]
  73.354                                 [S/N in S/N window]
  58.120                                 [S/N in norm. window]
  64.892                                 [S/N_err in S/N window]
  51.416                                 [S/N_err in norm. window]
  1.0000                                 [fscale_chi2]

## etc...
  2147483620                             [idum_orig]
  3065                                   [NOl_eff]
  2172                                   [Nl_eff]
   893    NSIGMA                         [Ntot_cliped & clip_method]
  3726310                                [Nglobal_steps]
   7                                     [N_chains]
  23                                     [NEX0s_base = N_base in EX0s-fits]
 0   0   1      379   2.0   9.372E+02    [Clip-Bug, RC-Crash & Burn-In warning-flags, n_censored_weights, wei_nsig_threshold & wei_limit]
   139    138.950    138.946      0.004  [idt_all, wdt_TotTime, wdt_UsrTime & wdt_SysTime (sec)]

## Synthesis Results - Best model ##

 2.09056E+00                             [chi2/Nl_eff]
     1.60853                             [adev (%)]

   101.63131                             [sum-of-x (%)]
 4.39838E-14                             [Flux_tot (units of input spectrum!)]
 9.67685E-10                             [Mini_tot (???)]
 4.93900E-10                             [Mcor_tot (???)]

 -15.90                                  [v0_min  (km/s)]
  82.69                                  [vd_min  (km/s)]
 0.8616                                  [AV_min  (mag)]
 0.0000                                  [YAV_min (mag)]

# j     x_j(%)      Mini_j(%)     Mcor_j(%)     age_j(yr)     Z_j      (L/M)_j    YAV?  Mstars   component_j        a/Fe...       SSP_chi2r SSP_adev(%)   SSP_AV   SSP_x(%)
  1      0.0000     0.0000E+00    0.0000E+00    1.000000E+06  0.00010  8.160E-03    0   1.0000   age020_m22            0.0000     4.3620E+02    18.5172   4.0000    73.2422
  2     14.4171     1.3549E-02    2.6545E-02    3.160000E+06  0.00010  4.759E-02    0   1.0000   age045_m22            0.0000     2.7410E+01     3.7286   2.4287    93.2557
  3      0.0000     0.0000E+00    0.0000E+00    5.010000E+06  0.00010  1.932E-02    0   0.9582   age055_m22            0.0000     1.9167E+02     9.3608   2.8019    77.7311
  4      0.0000     0.0000E+00    0.0000E+00    6.610000E+06  0.00010  9.973E-03    0   0.9297   age061_m22            0.0000     3.7801E+02    17.4116   4.0000    75.9049
  5      0.0000     0.0000E+00    0.0000E+00    8.710000E+06  0.00010  7.690E-03    0   0.9030   age067_m22            0.0000     3.5864E+02    16.9747   4.0000    76.4326
  6      0.0000     0.0000E+00    0.0000E+00    1.000000E+07  0.00010  6.375E-03    0   0.8902   age070_m22            0.0000     3.5570E+02    17.0963   4.0000    76.7397
  7      0.0000     0.0000E+00    0.0000E+00    1.445000E+07  0.00010  4.874E-03    0   0.8589   age078_m22            0.0000     1.9609E+02    11.4439   4.0000    79.6309
  8      0.0000     0.0000E+00    0.0000E+00    2.512000E+07  0.00010  4.103E-03    0   0.8174   age090_m22            0.0000     5.1931E+01     5.6239   3.8315    85.7773
  9      1.3799     1.6889E-02    2.5909E-02    4.000000E+07  0.00010  3.654E-03    0   0.7830   age104_m22            0.0000     6.4166E+01     4.4055   3.5085    91.3205
 10      0.8668     1.2534E-02    1.8656E-02    5.500000E+07  0.00010  3.093E-03    0   0.7597   age110_m22            0.0000     8.3366E+01     4.0011   3.3851    93.7698
 11      0.3740     6.8809E-03    9.6232E-03    1.015200E+08  0.00010  2.431E-03    0   0.7138   age116_m22            0.0000     1.4621E+02     3.8326   3.0147    97.5988
 12      0.0000     0.0000E+00    0.0000E+00    1.609000E+08  0.00010  1.319E-03    0   0.6775   age120_m22            0.0000     1.6013E+02     3.6330   2.5004   101.5732
 13      0.0000     0.0000E+00    0.0000E+00    2.861200E+08  0.00010  1.075E-03    0   0.6412   age125_m22            0.0000     4.5413E+02     6.3192   2.4707   109.2978
 14      0.0000     0.0000E+00    0.0000E+00    5.088000E+08  0.00010  7.183E-04    0   0.6083   age130_m22            0.0000     5.5565E+02     7.6577   2.1929   113.3413
 15      0.0000     0.0000E+00    0.0000E+00    9.047900E+08  0.00010  4.524E-04    0   0.5785   age135_m22            0.0000     5.5656E+02     7.9618   1.9823   115.2555
 16      0.0000     0.0000E+00    0.0000E+00    1.278050E+09  0.00010  3.018E-04    0   0.5588   age138_m22            0.0000     2.4248E+02     5.4685   1.5123   110.8124
 17      0.0000     0.0000E+00    0.0000E+00    1.434000E+09  0.00010  2.691E-04    0   0.5532   age139_m22            0.0000     1.8694E+02     4.9845   1.3680   109.7920
 18      0.0000     0.0000E+00    0.0000E+00    2.500000E+09  0.00010  1.582E-04    0   0.5296   age150_m22            0.0000     1.5663E+02     4.2771   1.2785   109.3528
 19      0.0000     0.0000E+00    0.0000E+00    4.250000E+09  0.00010  1.007E-04    0   0.5110   age158_m22            0.0000     7.2784E+01     3.2198   1.1560   106.3912
 20      0.0000     0.0000E+00    0.0000E+00    6.250000E+09  0.00010  6.869E-05    0   0.4985   age166_m22            0.0000     2.2894E+01     2.4303   1.1272   102.3473
 21      0.6525     4.9692E-01    4.8008E-01    7.500000E+09  0.00010  5.873E-05    0   0.4931   age171_m22            0.0000     1.9144E+01     2.3692   1.1250   101.2914
 22      0.0699     6.9750E-02    6.6335E-02    1.000000E+10  0.00010  4.481E-05    0   0.4854   age181_m22            0.0000     1.8095E+01     2.3327   1.0857   100.9953
 23      0.0000     0.0000E+00    0.0000E+00    1.300000E+10  0.00010  3.489E-05    0   0.4791   age193_m22            0.0000     1.4794E+01     2.2476   1.0281   100.5347
 24      0.0000     0.0000E+00    0.0000E+00    1.500000E+10  0.00010  3.035E-05    0   0.4766   age201_m22            0.0000     1.2937E+01     2.1873   0.9903   100.3117
 25      0.1578     2.8112E-01    2.6080E-01    1.800000E+10  0.00010  2.510E-05    0   0.4735   age213_m22            0.0000     9.1317E+00     2.0796   0.9250    99.5864
 26      0.0000     0.0000E+00    0.0000E+00    1.000000E+06  0.00040  8.458E-03    0   1.0000   age020_m32            0.0000     4.3539E+02    18.7741   4.0000    73.9514
 27      0.0000     0.0000E+00    0.0000E+00    3.160000E+06  0.00040  3.973E-02    0   1.0000   age045_m32            0.0000     5.6115E+01     5.8603   3.7383    85.2675
 28      0.0000     0.0000E+00    0.0000E+00    5.010000E+06  0.00040  1.935E-02    0   0.9532   age055_m32            0.0000     1.4434E+02     8.5529   4.0000    78.2399
 29      0.0000     0.0000E+00    0.0000E+00    6.610000E+06  0.00040  1.204E-02    0   0.9243   age061_m32            0.0000     2.5063E+02    13.2049   4.0000    77.7878
 30      0.0000     0.0000E+00    0.0000E+00    8.710000E+06  0.00040  9.433E-03    0   0.9001   age067_m32            0.0000     2.1421E+02    12.1240   4.0000    78.7517
 31      0.0000     0.0000E+00    0.0000E+00    1.000000E+07  0.00040  8.053E-03    0   0.8877   age070_m32            0.0000     1.9159E+02    11.0500   4.0000    79.1776
 32      0.0000     0.0000E+00    0.0000E+00    1.445000E+07  0.00040  7.027E-03    0   0.8578   age078_m32            0.0000     7.1122E+01     6.7659   3.7091    83.4685
 33      0.0000     0.0000E+00    0.0000E+00    2.512000E+07  0.00040  4.707E-03    0   0.8166   age090_m32            0.0000     4.5198E+01     5.4756   3.3865    88.3199
 34      0.0000     0.0000E+00    0.0000E+00    4.000000E+07  0.00040  3.714E-03    0   0.7827   age104_m32            0.0000     5.5917E+01     4.4323   3.1604    92.5793
 35      0.0000     0.0000E+00    0.0000E+00    5.500000E+07  0.00040  2.982E-03    0   0.7593   age110_m32            0.0000     7.4753E+01     4.1137   3.0828    94.4304
 36      0.0000     0.0000E+00    0.0000E+00    1.015200E+08  0.00040  2.188E-03    0   0.7143   age116_m32            0.0000     2.2751E+02     4.0767   2.7466   101.7589
 37      0.0000     0.0000E+00    0.0000E+00    1.609000E+08  0.00040  1.690E-03    0   0.6856   age120_m32            0.0000     3.6057E+02     4.9326   2.4958   106.2635
 38      0.0000     0.0000E+00    0.0000E+00    2.861200E+08  0.00040  1.152E-03    0   0.6509   age125_m32            0.0000     4.7576E+02     6.7430   2.2025   111.4637
 39      0.0000     0.0000E+00    0.0000E+00    5.088000E+08  0.00040  7.331E-04    0   0.6182   age130_m32            0.0000     5.1406E+02     7.5336   2.0134   113.5730
 40      0.0000     0.0000E+00    0.0000E+00    9.047900E+08  0.00040  3.960E-04    0   0.5890   age135_m32            0.0000     2.3821E+02     6.1019   1.5891   110.9714
 41      0.0000     0.0000E+00    0.0000E+00    1.278050E+09  0.00040  2.854E-04    0   0.5687   age138_m32            0.0000     1.8571E+02     4.8491   1.3296   111.0986
 42      0.0000     0.0000E+00    0.0000E+00    1.434000E+09  0.00040  2.531E-04    0   0.5632   age139_m32            0.0000     1.7955E+02     4.6787   1.2712   110.9243
 43      0.0000     0.0000E+00    0.0000E+00    2.500000E+09  0.00040  1.488E-04    0   0.5386   age150_m32            0.0000     1.0804E+02     3.9053   1.0281   108.5893
 44     57.2651     2.8199E+01    2.8725E+01    4.250000E+09  0.00040  9.082E-05    0   0.5199   age158_m32            0.0000     1.9741E+01     2.3507   0.9733   103.3771
 45      7.3564     5.1713E+00    5.1430E+00    6.250000E+09  0.00040  6.362E-05    0   0.5076   age166_m32            0.0000     6.3334E+00     1.9670   0.9719    98.1895
 46      0.0732     6.1896E-02    6.0963E-02    7.500000E+09  0.00040  5.289E-05    0   0.5027   age171_m32            0.0000     9.5376E+00     2.0189   0.9378    96.9203
 47      0.0000     0.0000E+00    0.0000E+00    1.000000E+10  0.00040  3.972E-05    0   0.4948   age181_m32            0.0000     1.3737E+01     2.1079   0.8732    95.8106
 48      0.0000     0.0000E+00    0.0000E+00    1.300000E+10  0.00040  3.283E-05    0   0.4870   age193_m32            0.0000     4.9878E+00     1.9609   0.8093    99.3633
 49      0.0000     0.0000E+00    0.0000E+00    1.500000E+10  0.00040  2.925E-05    0   0.4854   age201_m32            0.0000     7.5375E+00     2.0776   0.7791   101.4479
 50      0.0000     0.0000E+00    0.0000E+00    1.800000E+10  0.00040  2.469E-05    0   0.4819   age213_m32            0.0000     1.0095E+01     2.1784   0.7326   102.2384
 51      0.0000     0.0000E+00    0.0000E+00    1.000000E+06  0.00400  1.114E-02    0   1.0000   age020_m42            0.0000     3.8127E+02    16.6917   4.0000    74.5014
 52      0.9296     1.0207E-03    1.9997E-03    3.160000E+06  0.00400  4.073E-02    0   0.9999   age045_m42            0.0000     3.6500E+01     4.6083   3.4153    88.8147
 53      0.0000     0.0000E+00    0.0000E+00    5.010000E+06  0.00400  2.534E-02    0   0.9488   age055_m42            0.0000     9.4970E+01     6.8690   3.8611    81.2566
 54      0.0012     2.0708E-06    3.7408E-06    6.610000E+06  0.00400  2.583E-02    0   0.9220   age061_m42            0.0000     4.2036E+01     4.3687   3.2355    89.5875
 55      0.0066     1.7285E-05    3.0422E-05    8.710000E+06  0.00400  1.706E-02    0   0.8983   age067_m42            0.0000     4.9002E+01     5.7644   3.0887    86.4951
 56      0.0000     0.0000E+00    0.0000E+00    1.000000E+07  0.00400  1.271E-02    0   0.8862   age070_m42            0.0000     7.0330E+01     7.1726   3.0924    84.2427
 57      0.0000     0.0000E+00    0.0000E+00    1.445000E+07  0.00400  7.666E-03    0   0.8571   age078_m42            0.0000     1.1275E+02     7.6627   3.4989    81.2203
 58      0.0000     0.0000E+00    0.0000E+00    2.512000E+07  0.00400  5.070E-03    0   0.8174   age090_m42            0.0000     6.0374E+01     6.5584   2.9416    86.6505
 59      0.0000     0.0000E+00    0.0000E+00    4.000000E+07  0.00400  3.505E-03    0   0.7851   age104_m42            0.0000     4.1955E+01     4.8693   2.5867    91.2250
 60      0.0000     0.0000E+00    0.0000E+00    5.500000E+07  0.00400  3.059E-03    0   0.7629   age110_m42            0.0000     7.7164E+01     2.9475   2.5839    98.3316
 61      0.0000     0.0000E+00    0.0000E+00    1.015200E+08  0.00400  2.268E-03    0   0.7207   age116_m42            0.0000     3.1429E+02     4.7900   2.4095   107.1931
 62      0.0000     0.0000E+00    0.0000E+00    1.609000E+08  0.00400  1.720E-03    0   0.6930   age120_m42            0.0000     3.4339E+02     5.5968   2.2395   110.1977
 63      0.0000     0.0000E+00    0.0000E+00    2.861200E+08  0.00400  1.079E-03    0   0.6613   age125_m42            0.0000     3.5977E+02     6.1238   1.8522   112.2407
 64      0.0000     0.0000E+00    0.0000E+00    5.088000E+08  0.00400  6.261E-04    0   0.6313   age130_m42            0.0000     4.1897E+02     6.6753   1.6407   116.0032
 65      0.0000     0.0000E+00    0.0000E+00    9.047900E+08  0.00400  3.535E-04    0   0.6024   age135_m42            0.0000     2.1722E+02     5.5602   1.2666   115.4592
 66      0.0000     0.0000E+00    0.0000E+00    1.278050E+09  0.00400  2.677E-04    0   0.5837   age138_m42            0.0000     5.2616E+01     5.3281   0.5851   113.6425
 67      0.0000     0.0000E+00    0.0000E+00    1.434000E+09  0.00400  1.910E-04    0   0.5716   age139_m42            0.0000     7.2546E+01     5.3270   0.7523   114.3852
 68      0.0000     0.0000E+00    0.0000E+00    2.500000E+09  0.00400  9.818E-05    0   0.5463   age150_m42            0.0000     2.2837E+01     4.4428   0.5185   108.2972
 69      0.0000     0.0000E+00    0.0000E+00    4.250000E+09  0.00400  5.491E-05    0   0.5269   age158_m42            0.0000     4.5434E+01     4.0640   0.4139   104.6251
 70      0.0000     0.0000E+00    0.0000E+00    6.250000E+09  0.00400  3.857E-05    0   0.5151   age166_m42            0.0000     7.4106E+01     4.5631   0.2868   103.5235
 71      0.0000     0.0000E+00    0.0000E+00    7.500000E+09  0.00400  3.243E-05    0   0.5110   age171_m42            0.0000     9.3982E+01     4.9251   0.2049   103.2766
 72      0.0000     0.0000E+00    0.0000E+00    1.000000E+10  0.00400  2.424E-05    0   0.5028   age181_m42            0.0000     1.2736E+02     5.3886   0.1193   103.0672
 73      0.0000     0.0000E+00    0.0000E+00    1.300000E+10  0.00400  1.883E-05    0   0.4927   age193_m42            0.0000     1.5888E+02     5.6460   0.0774   102.9742
 74      1.6478     4.3735E+00    4.2150E+00    1.500000E+10  0.00400  1.685E-05    0   0.4919   age201_m42            0.0000     1.5056E+02     5.5063   0.0838   102.8501
 75      0.0000     0.0000E+00    0.0000E+00    1.800000E+10  0.00400  1.452E-05    0   0.4874   age213_m42            0.0000     1.3529E+02     5.2578   0.1023   102.8670
 76      0.0000     0.0000E+00    0.0000E+00    1.000000E+06  0.00800  1.286E-02    0   1.0000   age020_m52            0.0000     3.1929E+02    15.3438   4.0000    76.6046
 77      0.0000     0.0000E+00    0.0000E+00    3.160000E+06  0.00800  3.147E-02    0   0.9966   age045_m52            0.0000     2.5629E+02    13.1188   4.0000    77.8167
 78      0.0000     0.0000E+00    0.0000E+00    5.010000E+06  0.00800  2.664E-02    0   0.9443   age055_m52            0.0000     1.1837E+02     7.2373   3.9799    80.3704
 79      0.0000     0.0000E+00    0.0000E+00    6.610000E+06  0.00800  2.151E-02    0   0.9177   age061_m52            0.0000     7.0043E+01     5.8004   2.6556    87.4307
 80      0.0000     0.0000E+00    0.0000E+00    8.710000E+06  0.00800  1.628E-02    0   0.8948   age067_m52            0.0000     5.8022E+01     6.0768   3.0339    87.2890
 81      0.0000     0.0000E+00    0.0000E+00    1.000000E+07  0.00800  1.215E-02    0   0.8827   age070_m52            0.0000     7.2982E+01     6.6945   3.3843    85.1007
 82      0.0000     0.0000E+00    0.0000E+00    1.445000E+07  0.00800  8.739E-03    0   0.8552   age078_m52            0.0000     6.1586E+01     6.0433   3.4176    86.6332
 83      0.0000     0.0000E+00    0.0000E+00    2.512000E+07  0.00800  5.676E-03    0   0.8162   age090_m52            0.0000     7.0721E+01     5.0897   2.9955    91.9113
 84      0.0000     0.0000E+00    0.0000E+00    4.000000E+07  0.00800  3.939E-03    0   0.7841   age104_m52            0.0000     9.7017E+01     3.8942   2.7968    96.0219
 85      0.0000     0.0000E+00    0.0000E+00    5.500000E+07  0.00800  3.155E-03    0   0.7627   age110_m52            0.0000     1.3551E+02     3.4131   2.7370    99.1644
 86      0.0000     0.0000E+00    0.0000E+00    1.015200E+08  0.00800  2.206E-03    0   0.7226   age116_m52            0.0000     2.3601E+02     4.0534   2.4944   105.8189
 87      0.0000     0.0000E+00    0.0000E+00    1.609000E+08  0.00800  1.596E-03    0   0.6963   age120_m52            0.0000     2.8844E+02     4.9935   2.2446   109.2002
 88      0.0000     0.0000E+00    0.0000E+00    2.861200E+08  0.00800  1.002E-03    0   0.6665   age125_m52            0.0000     4.4023E+02     7.4279   1.8677   116.1904
 89      0.0000     0.0000E+00    0.0000E+00    5.088000E+08  0.00800  5.759E-04    0   0.6377   age130_m52            0.0000     4.2476E+02     8.7266   1.4676   123.3942
 90      0.0000     0.0000E+00    0.0000E+00    9.047900E+08  0.00800  2.972E-04    0   0.6086   age135_m52            0.0000     1.4939E+02     8.1944   0.9327   123.1880
 91      0.0000     0.0000E+00    0.0000E+00    1.278050E+09  0.00800  2.242E-04    0   0.5907   age138_m52            0.0000     5.0311E+01     6.7026   0.3717   119.4852
 92      0.0000     0.0000E+00    0.0000E+00    1.434000E+09  0.00800  1.645E-04    0   0.5787   age139_m52            0.0000     4.1697E+01     6.0385   0.5384   117.7563
 93      0.0000     0.0000E+00    0.0000E+00    2.500000E+09  0.00800  7.723E-05    0   0.5519   age150_m52            0.0000     5.9103E+01     5.8682   0.2278   112.8188
 94      0.0000     0.0000E+00    0.0000E+00    4.250000E+09  0.00800  4.151E-05    0   0.5320   age158_m52            0.0000     8.2523E+01     5.6474   0.1786   109.2957
 95      0.0000     0.0000E+00    0.0000E+00    6.250000E+09  0.00800  3.010E-05    0   0.5197   age166_m52            0.0000     1.3981E+02     6.4174  -0.0234   108.5534
 96      0.0000     0.0000E+00    0.0000E+00    7.500000E+09  0.00800  2.467E-05    0   0.5139   age171_m52            0.0000     1.5557E+02     6.6649  -0.0689   108.4063
 97      4.9030     1.1777E+01    1.1661E+01    1.000000E+10  0.00800  1.862E-05    0   0.5054   age181_m52            0.0000     2.0219E+02     7.4914  -0.2146   108.9813
 98      4.5647     1.4246E+01    1.3923E+01    1.300000E+10  0.00800  1.433E-05    0   0.4988   age193_m52            0.0000     2.6229E+02     8.2890  -0.3292   110.7490
 99      0.0000     0.0000E+00    0.0000E+00    1.500000E+10  0.00800  1.244E-05    0   0.4936   age201_m52            0.0000     2.8747E+02     8.5602  -0.3663   111.6902
100      0.0000     0.0000E+00    0.0000E+00    1.800000E+10  0.00800  1.070E-05    0   0.4888   age213_m52            0.0000     3.0412E+02     8.7678  -0.4052   111.7912
101      0.0000     0.0000E+00    0.0000E+00    1.000000E+06  0.02000  1.989E-02    0   1.0000   age020_m62            0.0000     3.5885E+02    15.3983   4.0000    75.4507
102      0.0000     0.0000E+00    0.0000E+00    3.160000E+06  0.02000  3.772E-02    0   0.9858   age045_m62            0.0000     2.5118E+02    11.6986   4.0000    77.1823
103      0.0000     0.0000E+00    0.0000E+00    5.010000E+06  0.02000  3.227E-02    0   0.9342   age055_m62            0.0000     5.9531E+01     5.8773   3.7026    84.6115
104      0.0000     0.0000E+00    0.0000E+00    6.610000E+06  0.02000  2.387E-02    0   0.9090   age061_m62            0.0000     8.9096E+01     7.6002   3.4797    82.7491
105      0.0000     0.0000E+00    0.0000E+00    8.710000E+06  0.02000  1.102E-02    0   0.8861   age067_m62            0.0000     2.6478E+02    13.4537   3.1545    75.9128
106      0.0000     0.0000E+00    0.0000E+00    1.000000E+07  0.02000  1.011E-02    0   0.8751   age070_m62            0.0000     1.8796E+02    11.0355   3.1486    79.4181
107      0.0000     0.0000E+00    0.0000E+00    1.445000E+07  0.02000  7.331E-03    0   0.8472   age078_m62            0.0000     1.3537E+02     8.9105   3.1426    81.9913
108      0.0000     0.0000E+00    0.0000E+00    2.512000E+07  0.02000  4.206E-03    0   0.8099   age090_m62            0.0000     1.4715E+02     8.8831   3.0458    81.9142
109      0.0000     0.0000E+00    0.0000E+00    4.000000E+07  0.02000  3.373E-03    0   0.7799   age104_m62            0.0000     6.0642E+01     4.6858   2.7708    93.6335
110      0.0000     0.0000E+00    0.0000E+00    5.500000E+07  0.02000  2.747E-03    0   0.7595   age110_m62            0.0000     1.0566E+02     3.5422   2.6616    98.9554
111      0.0000     0.0000E+00    0.0000E+00    1.015200E+08  0.02000  1.878E-03    0   0.7221   age116_m62            0.0000     2.8260E+02     4.1861   2.4546   106.8421
112      0.0000     0.0000E+00    0.0000E+00    1.609000E+08  0.02000  1.378E-03    0   0.6978   age120_m62            0.0000     4.1978E+02     5.7692   2.2483   111.9477
113      0.0000     0.0000E+00    0.0000E+00    2.861200E+08  0.02000  8.869E-04    0   0.6700   age125_m62            0.0000     6.4904E+02     8.1142   1.7974   120.4030
114      0.0000     0.0000E+00    0.0000E+00    5.088000E+08  0.02000  4.834E-04    0   0.6430   age130_m62            0.0000     4.7113E+02     9.2574   1.3113   126.3146
115      0.0000     0.0000E+00    0.0000E+00    9.047900E+08  0.02000  2.312E-04    0   0.6152   age135_m62            0.0000     1.3229E+02     7.6190   0.7599   123.9665
116      0.0000     0.0000E+00    0.0000E+00    1.278050E+09  0.02000  1.387E-04    0   0.5927   age138_m62            0.0000     3.6233E+01     5.9872   0.4335   116.9123
117      0.0000     0.0000E+00    0.0000E+00    1.434000E+09  0.02000  1.168E-04    0   0.5865   age139_m62            0.0000     3.3209E+01     5.8011   0.4178   114.8444
118      0.0000     0.0000E+00    0.0000E+00    2.500000E+09  0.02000  5.505E-05    0   0.5610   age150_m62            0.0000     8.6426E+01     6.9483   0.0000   112.4802
119      0.0000     0.0000E+00    0.0000E+00    4.250000E+09  0.02000  3.070E-05    0   0.5407   age158_m62            0.0000     1.7944E+02     8.3327  -0.2806   114.3399
120      0.0000     0.0000E+00    0.0000E+00    6.250000E+09  0.02000  2.104E-05    0   0.5277   age166_m62            0.0000     2.4699E+02     9.2059  -0.4329   116.0489
121      0.0000     0.0000E+00    0.0000E+00    7.500000E+09  0.02000  1.770E-05    0   0.5223   age171_m62            0.0000     2.7864E+02     9.7286  -0.5360   117.2794
122      0.0000     0.0000E+00    0.0000E+00    1.000000E+10  0.02000  1.297E-05    0   0.5121   age181_m62            0.0000     3.5426E+02    10.7462  -0.7237   119.5054
123      0.0000     0.0000E+00    0.0000E+00    1.300000E+10  0.02000  9.691E-06    0   0.5047   age193_m62            0.0000     4.1160E+02    11.3986  -0.8304   121.1598
124      0.0000     0.0000E+00    0.0000E+00    1.500000E+10  0.02000  8.360E-06    0   0.4999   age201_m62            0.0000     4.5773E+02    12.0086  -0.9215   122.5519
125      0.0000     0.0000E+00    0.0000E+00    1.800000E+10  0.02000  6.911E-06    0   0.4946   age213_m62            0.0000     5.1313E+02    12.7121  -1.0000   124.1194
126      0.0000     0.0000E+00    0.0000E+00    1.000000E+06  0.05000  2.651E-02    0   0.9998   age020_m72            0.0000     3.4163E+02    14.9203   4.0000    76.6590
127      0.0000     0.0000E+00    0.0000E+00    3.160000E+06  0.05000  4.817E-02    0   0.9577   age045_m72            0.0000     1.3583E+02     7.7574   4.0000    80.2704
128      0.0000     0.0000E+00    0.0000E+00    5.010000E+06  0.05000  3.101E-02    0   0.9147   age055_m72            0.0000     1.0764E+02     7.2742   3.7406    82.1528
129      0.0000     0.0000E+00    0.0000E+00    6.610000E+06  0.05000  1.472E-02    0   0.8877   age061_m72            0.0000     2.2411E+02    11.1028   3.3304    78.5153
130      0.0000     0.0000E+00    0.0000E+00    8.710000E+06  0.05000  1.050E-02    0   0.8638   age067_m72            0.0000     1.7589E+02     8.7014   3.6949    80.5805
131      0.0000     0.0000E+00    0.0000E+00    1.000000E+07  0.05000  8.954E-03    0   0.8524   age070_m72            0.0000     1.4515E+02     7.1940   3.9521    81.9519
132      0.0000     0.0000E+00    0.0000E+00    1.445000E+07  0.05000  6.392E-03    0   0.8262   age078_m72            0.0000     1.2518E+02     6.6072   3.8871    83.5212
133      0.0000     0.0000E+00    0.0000E+00    2.512000E+07  0.05000  4.207E-03    0   0.7902   age090_m72            0.0000     7.0517E+01     5.1093   3.4701    89.1922
134      0.0000     0.0000E+00    0.0000E+00    4.000000E+07  0.05000  3.198E-03    0   0.7618   age104_m72            0.0000     1.5438E+02     3.5544   2.8648   100.9634
135      0.0000     0.0000E+00    0.0000E+00    5.500000E+07  0.05000  2.593E-03    0   0.7432   age110_m72            0.0000     2.1868E+02     3.8127   2.7502   103.5980
136      0.0000     0.0000E+00    0.0000E+00    1.015200E+08  0.05000  1.716E-03    0   0.7092   age116_m72            0.0000     3.4715E+02     4.7335   2.5182   107.8238
137      0.0000     0.0000E+00    0.0000E+00    1.609000E+08  0.05000  1.218E-03    0   0.6876   age120_m72            0.0000     4.9750E+02     6.4318   2.2011   113.1497
138      0.0000     0.0000E+00    0.0000E+00    2.861200E+08  0.05000  7.047E-04    0   0.6618   age125_m72            0.0000     5.8367E+02     8.5525   1.5795   121.7403
139      0.0000     0.0000E+00    0.0000E+00    5.088000E+08  0.05000  3.590E-04    0   0.6356   age130_m72            0.0000     3.4511E+02     9.1518   0.9646   127.4861
140      0.0000     0.0000E+00    0.0000E+00    9.047900E+08  0.05000  1.484E-04    0   0.6088   age135_m72            0.0000     5.2558E+01     7.5152   0.2913   118.7348
141      0.0000     0.0000E+00    0.0000E+00    1.278050E+09  0.05000  9.435E-05    0   0.5924   age138_m72            0.0000     9.2480E+01     8.4826  -0.1104   116.1436
142      0.0000     0.0000E+00    0.0000E+00    1.434000E+09  0.05000  7.827E-05    0   0.5847   age139_m72            0.0000     1.0363E+02     8.2151  -0.0868   114.9207
143      0.0000     0.0000E+00    0.0000E+00    2.500000E+09  0.05000  3.759E-05    0   0.5583   age150_m72            0.0000     2.2112E+02     9.3113  -0.4296   115.3550
144      1.4562     3.5356E+00    3.7226E+00    4.250000E+09  0.05000  1.842E-05    0   0.5374   age158_m72            0.0000     3.3092E+02    10.4804  -0.7857   116.8818
145      1.5077     5.5865E+00    5.7376E+00    6.250000E+09  0.05000  1.207E-05    0   0.5242   age166_m72            0.0000     4.2628E+02    11.9144  -1.0000   118.4557
146      1.8620     8.3332E+00    8.4623E+00    7.500000E+09  0.05000  9.993E-06    0   0.5183   age171_m72            0.0000     4.4028E+02    12.3727  -1.0000   118.2639
147      1.0766     6.6039E+00    6.5742E+00    1.000000E+10  0.05000  7.291E-06    0   0.5081   age181_m72            0.0000     5.3668E+02    15.3062  -1.0000   118.2918
148      0.2175     1.8302E+00    1.7993E+00    1.300000E+10  0.05000  5.316E-06    0   0.5018   age193_m72            0.0000     7.6615E+02    20.8171  -1.0000   117.4424
149      0.3628     3.6078E+00    3.5145E+00    1.500000E+10  0.05000  4.497E-06    0   0.4972   age201_m72            0.0000     8.9785E+02    23.2035  -1.0000   117.3581
150      0.4829     5.7755E+00    5.5719E+00    1.800000E+10  0.05000  3.739E-06    0   0.4924   age213_m72            0.0000     1.1115E+03    26.3434  -1.0000   116.4316


## Synthesis Results - Average & Chains ##

# j      x_j: min, <> & last-chain-values for 1 ...  7 chains
  1      0.0000      0.0144      0.0000      0.0000      0.0000      0.0000      0.0000      0.0000      0.0000
  2     14.4171     11.0898     11.7479     12.0410     12.0044     12.2494     11.3417     12.6375     11.4897
  3      0.0000      0.1184      0.5359      0.2218      0.1496      0.0000      0.1475      0.2114      0.1640
  4      0.0000      0.0136      0.0000      0.0000      0.0000      0.0000      0.0000      0.0000      0.0000
  5      0.0000      0.0261      0.0811      0.1487      0.0000      0.1085      0.0000      0.0000      0.0000
  6      0.0000      0.0273      0.0147      0.0000      0.0472      0.0047      0.1040      0.0000      0.0000
  7      0.0000      0.0336      0.0062      0.0257      0.0333      0.0000      0.0000      0.0000      0.0000
  8      0.0000      0.0643      0.0000      0.0000      0.2359      0.0711      0.2556      0.0000      0.0000
  9      1.3799      0.8445      1.0375      1.1246      0.7912      1.0217      0.8575      0.9108      1.0691
 10      0.8668      0.4479      0.4683      0.4093      0.2416      0.3566      0.4662      0.5314      0.5058
 11      0.3740      1.1196      1.0800      1.0877      1.1454      1.1598      0.9078      0.7862      1.1813
 12      0.0000      0.0159      0.0000      0.0176      0.0000      0.0000      0.0000      0.0730      0.0000
 13      0.0000      0.0093      0.0000      0.0110      0.0000      0.0000      0.0000      0.0000      0.0000
 14      0.0000      0.0043      0.0000      0.0000      0.0000      0.0000      0.0000      0.0000      0.0000
 15      0.0000      0.0048      0.0000      0.0000      0.0000      0.0000      0.0000      0.0000      0.0000
 16      0.0000      0.0061      0.0000      0.0000      0.0000      0.0000      0.0000      0.0000      0.0000
 17      0.0000      0.0071      0.0000      0.0000      0.0000      0.0000      0.0000      0.0000      0.0000
 18      0.0000      0.0160      0.0000      0.0000      0.0000      0.0000      0.0000      0.0000      0.0000
 19      0.0000      0.0356      0.0000      0.0000      0.0617      0.0374      0.0000      0.0000      0.0000
 20      0.0000      0.1261      0.0070      0.0000      0.0269      0.0619      0.0656      0.3757      0.0000
 21      0.6525      0.3772      0.0000      0.3108      0.0874      0.5508      0.4737      0.0000      0.1486
 22      0.0699      0.2063      0.2111      0.0000      0.0000      0.2929      0.1104      0.0000      0.0000
 23      0.0000      0.1398      0.0000      0.0000      0.1631      0.0000      0.0000      0.0000      0.0000
 24      0.0000      0.1787      0.2825      0.2946      0.0000      0.1685      0.0380      0.1325      0.1001
 25      0.1578      0.4291      0.3073      0.0000      0.0000      0.4917      0.5373      0.0000      0.1768
 26      0.0000      0.0117      0.0000      0.0000      0.0000      0.0000      0.0000      0.0000      0.0000
 27      0.0000      0.0470      0.0000      0.1232      0.0000      0.0000      0.0000      0.0000      0.0000
 28      0.0000      0.0184      0.0000      0.0000      0.0000      0.0915      0.0000      0.0000      0.0000
 29      0.0000      0.0161      0.0000      0.0000      0.0000      0.0000      0.0000      0.0000      0.0000
 30      0.0000      0.0124      0.0000      0.0079      0.0000      0.0037      0.0000      0.1016      0.0000
 31      0.0000      0.0186      0.0136      0.0000      0.0000      0.0000      0.0000      0.0000      0.0000
 32      0.0000      0.0278      0.0000      0.0674      0.0000      0.0000      0.0000      0.0000      0.0211
 33      0.0000      0.0496      0.0000      0.0945      0.0000      0.0000      0.1051      0.0000      0.4266
 34      0.0000      0.1332      0.0226      0.3143      0.0000      0.0000      0.1794      0.0946      0.2598
 35      0.0000      0.1057      0.1703      0.0000      0.0000      0.0000      0.1668      0.0185      0.0000
 36      0.0000      0.0198      0.0000      0.0106      0.0263      0.0000      0.0000      0.0000      0.0000
 37      0.0000      0.0169      0.0000      0.0000      0.0112      0.0000      0.0000      0.0000      0.0000
 38      0.0000      0.0071      0.0000      0.0442      0.0014      0.0000      0.0000      0.0000      0.0000
 39      0.0000      0.0042      0.0000      0.0000      0.0000      0.0000      0.0000      0.0000      0.0000
 40      0.0000      0.0045      0.0000      0.0000      0.0000      0.0000      0.0032      0.0000      0.0000
 41      0.0000      0.0120      0.0000      0.0000      0.0000      0.0000      0.0000      0.0417      0.0189
 42      0.0000      0.0171      0.0535      0.0415      0.0000      0.0295      0.0000      0.0000      0.0000
 43      0.0000      0.0763      0.0000      0.0000      0.3287      0.2918      0.0643      0.1558      0.0000
 44     57.2651     59.5299     60.5931     59.9051     61.5885     58.5505     59.5141     59.4464     59.7001
 45      7.3564      3.5622      3.9183      3.4460      3.0880      4.7975      4.4734      4.6573      3.5394
 46      0.0732      0.6758      0.5178      0.5105      0.1348      0.8349      0.2907      0.2985      1.6272
 47      0.0000      0.1376      0.0324      0.0000      0.0000      0.0000      0.1423      0.0000      0.1972
 48      0.0000      0.1479      0.0249      0.1130      0.1439      0.0000      0.0957      0.0000      0.0676
 49      0.0000      0.1411      0.0000      0.1925      0.0216      0.0168      0.1823      0.2430      0.0000
 50      0.0000      0.1729      0.1546      0.0767      0.1780      0.1536      0.0000      0.3690      0.1596
 51      0.0000      0.0214      0.0770      0.0000      0.0000      0.0920      0.0039      0.0000      0.0443
 52      0.9296      0.4232      0.2463      0.4167      0.6548      0.4649      0.5316      0.5879      0.2835
 53      0.0000      0.0173      0.0005      0.0000      0.0000      0.0000      0.1647      0.0000      0.0000
 54      0.0012      0.7957      0.9162      0.9454      0.5751      0.6946      1.0601      0.4433      0.9732
 55      0.0066      0.3148      0.2644      0.0000      0.5743      0.3945      0.4586      0.4984      0.4245
 56      0.0000      0.0637      0.0000      0.0496      0.2086      0.0000      0.0000      0.0000      0.0621
 57      0.0000      0.0296      0.0000      0.0000      0.0000      0.0000      0.0135      0.0000      0.0003
 58      0.0000      0.0378      0.0000      0.0000      0.1419      0.0000      0.0000      0.0297      0.0413
 59      0.0000      0.0089      0.0000      0.0000      0.0000      0.0000      0.0000      0.0000      0.0000
 60      0.0000      0.0094      0.0000      0.0158      0.0287      0.0000      0.0000      0.0000      0.0000
 61      0.0000      0.0166      0.0000      0.0577      0.0000      0.0000      0.0000      0.0116      0.0000
 62      0.0000      0.0151      0.0000      0.0000      0.0000      0.0000      0.0000      0.0000      0.0000
 63      0.0000      0.0111      0.0000      0.0000      0.0000      0.0000      0.0000      0.0000      0.0000
 64      0.0000      0.0171      0.0000      0.0000      0.0000      0.0208      0.0000      0.0000      0.0000
 65      0.0000      0.0448      0.0323      0.2014      0.0258      0.0000      0.0000      0.1735      0.0268
 66      0.0000      0.0292      0.0000      0.0000      0.0302      0.0000      0.2116      0.1036      0.0528
 67      0.0000      0.0179      0.0000      0.0000      0.0000      0.0000      0.0000      0.0000      0.0000
 68      0.0000      0.0205      0.0000      0.0000      0.0000      0.0000      0.0000      0.0000      0.0000
 69      0.0000      0.0424      0.0000      0.0000      0.0000      0.0093      0.2611      0.0000      0.0000
 70      0.0000      0.0355      0.0000      0.1538      0.0000      0.0000      0.0000      0.0000      0.0987
 71      0.0000      0.0342      0.0000      0.0000      0.0000      0.0966      0.0965      0.0000      0.0000
 72      0.0000      0.4855      0.3780      0.2933      0.5050      0.0000      0.1485      0.0000      0.0000
 73      0.0000      0.0912      0.0000      0.3070      0.0000      0.0000      0.0000      0.0000      0.1582
 74      1.6478      0.1113      0.4646      0.2412      0.1836      0.6415      0.1777      0.1274      0.1414
 75      0.0000      0.0885      0.1492      0.0000      0.0891      0.0465      0.0000      0.0000      0.0000
 76      0.0000      0.0083      0.0000      0.0000      0.0000      0.0000      0.0000      0.0000      0.0000
 77      0.0000      0.0086      0.0000      0.0000      0.0000      0.0000      0.0000      0.1017      0.0000
 78      0.0000      0.0087      0.0000      0.0480      0.0000      0.0000      0.0000      0.0000      0.0000
 79      0.0000      0.0134      0.0000      0.0000      0.0701      0.0000      0.0000      0.0000      0.0000
 80      0.0000      0.0138      0.0116      0.0000      0.0000      0.0000      0.0000      0.0000      0.0000
 81      0.0000      0.0100      0.0000      0.0000      0.0000      0.0001      0.0000      0.0000      0.0000
 82      0.0000      0.0115      0.0000      0.0000      0.0000      0.0000      0.0000      0.0000      0.0000
 83      0.0000      0.0176      0.0000      0.0000      0.0000      0.0000      0.0054      0.0175      0.0000
 84      0.0000      0.0126      0.0000      0.0000      0.0000      0.0000      0.0000      0.0000      0.0000
 85      0.0000      0.0161      0.0000      0.0000      0.0000      0.0000      0.0000      0.0000      0.0000
 86      0.0000      0.0146      0.0000      0.0000      0.0000      0.0000      0.0000      0.0000      0.0000
 87      0.0000      0.0108      0.0000      0.0000      0.0000      0.0000      0.0000      0.0000      0.0000
 88      0.0000      0.0047      0.0000      0.0000      0.0000      0.0000      0.0338      0.0000      0.0000
 89      0.0000      0.0037      0.0000      0.0000      0.0000      0.0000      0.0000      0.0134      0.0000
 90      0.0000      0.0028      0.0000      0.0000      0.0000      0.0000      0.0000      0.0000      0.0000
 91      0.0000      0.0062      0.0000      0.0000      0.0000      0.0000      0.0000      0.0000      0.0000
 92      0.0000      0.0071      0.0000      0.0000      0.0000      0.0000      0.0000      0.0000      0.0000
 93      0.0000      0.0149      0.0000      0.0000      0.0000      0.0000      0.0000      0.0000      0.0000
 94      0.0000      0.0307      0.0000      0.1819      0.0000      0.0000      0.0000      0.0000      0.0127
 95      0.0000      0.0412      0.0139      0.0000      0.0288      0.1250      0.0370      0.2246      0.0000
 96      0.0000      0.0432      0.0000      0.0000      0.0558      0.0000      0.0000      0.0000      0.0000
 97      4.9030      7.1152      6.8242      6.9663      6.3943      6.7952      7.3111      6.9221      7.0346
 98      4.5647      4.9557      5.0216      4.7825      5.1368      4.6088      4.5817      5.0793      5.1524
 99      0.0000      0.0362      0.0000      0.1089      0.0000      0.0000      0.0000      0.0000      0.0780
100      0.0000      0.2119      0.2014      0.2062      0.1289      0.0714      0.0362      0.2205      0.4160
101      0.0000      0.0077      0.0000      0.0000      0.0000      0.1072      0.0000      0.0000      0.0000
102      0.0000      0.0062      0.0000      0.0000      0.0000      0.0000      0.0311      0.0027      0.0000
103      0.0000      0.0283      0.0000      0.0146      0.0000      0.0000      0.0000      0.0000      0.0000
104      0.0000      0.0239      0.0325      0.0000      0.0000      0.0000      0.0000      0.0000      0.0000
105      0.0000      0.0348      0.0000      0.0000      0.1474      0.0635      0.0000      0.1676      0.0000
106      0.0000      0.0649      0.0000      0.2405      0.2388      0.0000      0.0000      0.0507      0.0000
107      0.0000      0.0178      0.1435      0.0000      0.0000      0.0000      0.0000      0.0000      0.0000
108      0.0000      0.0047      0.0000      0.0000      0.0000      0.0000      0.0000      0.0000      0.0000
109      0.0000      0.0071      0.0000      0.0000      0.0000      0.0000      0.0158      0.0000      0.0000
110      0.0000      0.0104      0.0000      0.0000      0.0000      0.0000      0.0000      0.0000      0.0000
111      0.0000      0.0091      0.0000      0.0000      0.0000      0.0000      0.0146      0.0000      0.0000
112      0.0000      0.0090      0.0583      0.0000      0.0000      0.0000      0.0000      0.0000      0.0000
113      0.0000      0.0050      0.0000      0.0000      0.0000      0.0000      0.0000      0.0000      0.0000
114      0.0000      0.0036      0.0000      0.0000      0.0000      0.0000      0.0000      0.0000      0.0000
115      0.0000      0.0050      0.0000      0.0000      0.0156      0.0000      0.0000      0.0000      0.0000
116      0.0000      0.0063      0.0000      0.0000      0.0000      0.0126      0.0000      0.0000      0.0000
117      0.0000      0.0044      0.0000      0.0000      0.0000      0.0122      0.0000      0.0000      0.0000
118      0.0000      0.0124      0.0000      0.0000      0.0000      0.0000      0.0000      0.0000      0.0000
119      0.0000      0.0134      0.0000      0.0012      0.0000      0.0000      0.0000      0.0000      0.0000
120      0.0000      0.0161      0.0000      0.0000      0.0000      0.0000      0.0000      0.0129      0.0000
121      0.0000      0.0161      0.0000      0.0000      0.0000      0.0000      0.0000      0.0000      0.0000
122      0.0000      0.0254      0.0000      0.0000      0.0000      0.0000      0.0000      0.0974      0.0000
123      0.0000      0.0385      0.0000      0.0871      0.0000      0.0000      0.0000      0.0000      0.0000
124      0.0000      0.0643      0.0000      0.0000      0.0000      0.0000      0.0000      0.1234      0.0000
125      0.0000      0.1351      0.1296      0.0000      0.0000      0.1324      0.0000      0.0000      0.0000
126      0.0000      0.0057      0.0000      0.0000      0.0000      0.0000      0.0000      0.0000      0.0000
127      0.0000      0.0089      0.0000      0.0000      0.0000      0.0000      0.0000      0.0000      0.0000
128      0.0000      0.0082      0.0007      0.0000      0.0000      0.0000      0.0000      0.0000      0.0000
129      0.0000      0.0080      0.0000      0.1051      0.0109      0.0000      0.0451      0.0000      0.0000
130      0.0000      0.0084      0.0000      0.0000      0.0000      0.0000      0.0000      0.0571      0.0000
131      0.0000      0.0081      0.0000      0.0000      0.0042      0.0000      0.0000      0.0000      0.0000
132      0.0000      0.0066      0.0000      0.0000      0.0000      0.0000      0.0000      0.0000      0.1563
133      0.0000      0.0058      0.0000      0.0000      0.0000      0.0000      0.0000      0.0000      0.0000
134      0.0000      0.0065      0.0000      0.0000      0.0000      0.0000      0.0000      0.0000      0.0000
135      0.0000      0.0086      0.0000      0.0000      0.0000      0.0000      0.0000      0.0000      0.0000
136      0.0000      0.0081      0.0000      0.0000      0.0000      0.0000      0.0000      0.0000      0.0148
137      0.0000      0.0062      0.0000      0.0000      0.0000      0.0000      0.0000      0.0473      0.0000
138      0.0000      0.0031      0.0000      0.0000      0.0000      0.0000      0.0000      0.0000      0.0000
139      0.0000      0.0036      0.0000      0.0000      0.0000      0.0000      0.0000      0.0000      0.0000
140      0.0000      0.0067      0.0000      0.0141      0.0000      0.0000      0.0000      0.0000      0.0000
141      0.0000      0.0072      0.0000      0.0000      0.0000      0.0000      0.0000      0.0000      0.0000
142      0.0000      0.0093      0.0000      0.0000      0.0000      0.0000      0.0000      0.0000      0.0000
143      0.0000      0.0176      0.0000      0.0197      0.0000      0.0000      0.0000      0.0000      0.0000
144      1.4562      0.6868      0.5516      0.7635      0.8051      0.6709      0.6998      0.7407      0.7477
145      1.5077      0.6630      0.7370      0.8011      0.6229      0.8636      0.8101      0.6715      0.9356
146      1.8620      0.8037      0.8013      0.8162      1.0971      1.1436      1.1311      0.8462      0.8244
147      1.0766      0.8821      0.8521      0.7734      0.8299      1.0769      0.8975      1.1023      1.0097
148      0.2175      0.5906      0.7760      0.5514      0.6199      0.4426      0.5164      0.5265      0.5506
149      0.3628      0.6742      0.6452      0.7715      0.7181      0.6439      0.6944      0.6759      0.7804
150      0.4829      1.1769      1.1725      1.1498      1.3883      1.1815      1.2091      1.0588      0.8877

# j      m_j: min, <> & last-chain-values for 1 ...  7 chains
  1  0.0000E+00  1.4001E-04  0.0000E+00  0.0000E+00  0.0000E+00  0.0000E+00  0.0000E+00  0.0000E+00  0.0000E+00
  2  2.6545E-02  1.8480E-02  1.9688E-02  2.0532E-02  2.0098E-02  2.0609E-02  1.9256E-02  2.1628E-02  1.9590E-02
  3  0.0000E+00  4.6562E-04  2.1199E-03  8.9252E-04  5.9129E-04  0.0000E+00  5.9112E-04  8.5393E-04  6.5982E-04
  4  0.0000E+00  1.0054E-04  0.0000E+00  0.0000E+00  0.0000E+00  0.0000E+00  0.0000E+00  0.0000E+00  0.0000E+00
  5  0.0000E+00  2.4305E-04  7.5940E-04  1.4168E-03  0.0000E+00  1.0205E-03  0.0000E+00  0.0000E+00  0.0000E+00
  6  0.0000E+00  3.0247E-04  1.6423E-04  0.0000E+00  5.2548E-04  5.2500E-05  1.1735E-03  0.0000E+00  0.0000E+00
  7  0.0000E+00  4.6943E-04  8.6695E-05  3.6738E-04  4.6721E-04  0.0000E+00  0.0000E+00  0.0000E+00  0.0000E+00
  8  0.0000E+00  1.0165E-03  0.0000E+00  0.0000E+00  3.7438E-03  1.1334E-03  4.1148E-03  0.0000E+00  0.0000E+00
  9  2.5909E-02  1.4351E-02  1.7731E-02  1.9556E-02  1.3509E-02  1.7529E-02  1.4846E-02  1.5897E-02  1.8589E-02
 10  1.8656E-02  8.7234E-03  9.1741E-03  8.1588E-03  4.7275E-03  7.0128E-03  9.2521E-03  1.0631E-02  1.0081E-02
 11  9.6232E-03  2.6069E-02  2.5292E-02  2.5917E-02  2.6796E-02  2.7266E-02  2.1537E-02  1.8801E-02  2.8144E-02
 12  0.0000E+00  6.4642E-04  0.0000E+00  7.3375E-04  0.0000E+00  0.0000E+00  0.0000E+00  3.0523E-03  0.0000E+00
 13  0.0000E+00  4.4086E-04  0.0000E+00  5.3122E-04  0.0000E+00  0.0000E+00  0.0000E+00  0.0000E+00  0.0000E+00
 14  0.0000E+00  2.8953E-04  0.0000E+00  0.0000E+00  0.0000E+00  0.0000E+00  0.0000E+00  0.0000E+00  0.0000E+00
 15  0.0000E+00  4.8471E-04  0.0000E+00  0.0000E+00  0.0000E+00  0.0000E+00  0.0000E+00  0.0000E+00  0.0000E+00
 16  0.0000E+00  9.0057E-04  0.0000E+00  0.0000E+00  0.0000E+00  0.0000E+00  0.0000E+00  0.0000E+00  0.0000E+00
 17  0.0000E+00  1.1575E-03  0.0000E+00  0.0000E+00  0.0000E+00  0.0000E+00  0.0000E+00  0.0000E+00  0.0000E+00
 18  0.0000E+00  4.2420E-03  0.0000E+00  0.0000E+00  0.0000E+00  0.0000E+00  0.0000E+00  0.0000E+00  0.0000E+00
 19  0.0000E+00  1.4312E-02  0.0000E+00  0.0000E+00  2.4960E-02  1.5198E-02  0.0000E+00  0.0000E+00  0.0000E+00
 20  0.0000E+00  7.2561E-02  4.0269E-03  0.0000E+00  1.5579E-02  3.5944E-02  3.8460E-02  2.2206E-01  0.0000E+00
 21  4.8008E-01  2.5116E-01  0.0000E+00  2.1177E-01  5.8482E-02  3.7025E-01  3.2135E-01  0.0000E+00  1.0123E-01
 22  6.6335E-02  1.7725E-01  1.8241E-01  0.0000E+00  0.0000E+00  2.5400E-01  9.6663E-02  0.0000E+00  0.0000E+00
 23  0.0000E+00  1.5222E-01  0.0000E+00  0.0000E+00  1.7840E-01  0.0000E+00  0.0000E+00  0.0000E+00  0.0000E+00
 24  0.0000E+00  2.2257E-01  3.5383E-01  3.7542E-01  0.0000E+00  2.1181E-01  4.8254E-02  1.6952E-01  1.2759E-01
 25  2.6080E-01  6.4188E-01  4.6229E-01  0.0000E+00  0.0000E+00  7.4270E-01  8.1896E-01  0.0000E+00  2.7069E-01
 26  0.0000E+00  1.0944E-04  0.0000E+00  0.0000E+00  0.0000E+00  0.0000E+00  0.0000E+00  0.0000E+00  0.0000E+00
 27  0.0000E+00  9.3780E-05  0.0000E+00  2.5156E-04  0.0000E+00  0.0000E+00  0.0000E+00  0.0000E+00  0.0000E+00
 28  0.0000E+00  7.1842E-05  0.0000E+00  0.0000E+00  0.0000E+00  3.6098E-04  0.0000E+00  0.0000E+00  0.0000E+00
 29  0.0000E+00  9.8105E-05  0.0000E+00  0.0000E+00  0.0000E+00  0.0000E+00  0.0000E+00  0.0000E+00  0.0000E+00
 30  0.0000E+00  9.3816E-05  0.0000E+00  6.0816E-05  0.0000E+00  2.8148E-05  0.0000E+00  7.8943E-04  0.0000E+00
 31  0.0000E+00  1.6222E-04  1.2000E-04  0.0000E+00  0.0000E+00  0.0000E+00  0.0000E+00  0.0000E+00  0.0000E+00
 32  0.0000E+00  2.6930E-04  0.0000E+00  6.6799E-04  0.0000E+00  0.0000E+00  0.0000E+00  0.0000E+00  2.0897E-04
 33  0.0000E+00  6.8216E-04  0.0000E+00  1.3297E-03  0.0000E+00  0.0000E+00  1.4737E-03  0.0000E+00  6.0052E-03
 34  0.0000E+00  2.2254E-03  3.7956E-04  5.3745E-03  0.0000E+00  0.0000E+00  3.0555E-03  1.6239E-03  4.4431E-03
 35  0.0000E+00  2.1344E-03  3.4575E-03  0.0000E+00  0.0000E+00  0.0000E+00  3.4323E-03  3.8386E-04  0.0000E+00
 36  0.0000E+00  5.1371E-04  0.0000E+00  2.8188E-04  6.8288E-04  0.0000E+00  0.0000E+00  0.0000E+00  0.0000E+00
 37  0.0000E+00  5.4396E-04  0.0000E+00  0.0000E+00  3.6081E-04  0.0000E+00  0.0000E+00  0.0000E+00  0.0000E+00
 38  0.0000E+00  3.1788E-04  0.0000E+00  2.0266E-03  6.5195E-05  0.0000E+00  0.0000E+00  0.0000E+00  0.0000E+00
 39  0.0000E+00  2.8111E-04  0.0000E+00  0.0000E+00  0.0000E+00  0.0000E+00  0.0000E+00  0.0000E+00  0.0000E+00
 40  0.0000E+00  5.2545E-04  0.0000E+00  0.0000E+00  0.0000E+00  0.0000E+00  3.7959E-04  0.0000E+00  0.0000E+00
 41  0.0000E+00  1.8890E-03  0.0000E+00  0.0000E+00  0.0000E+00  0.0000E+00  0.0000E+00  6.7657E-03  3.0558E-03
 42  0.0000E+00  3.0176E-03  9.4931E-03  7.4941E-03  0.0000E+00  5.2570E-03  0.0000E+00  0.0000E+00  0.0000E+00
 43  0.0000E+00  2.1908E-02  0.0000E+00  0.0000E+00  9.4806E-02  8.4556E-02  1.8812E-02  4.5940E-02  0.0000E+00
 44  2.8725E+01  2.7025E+01  2.7664E+01  2.7828E+01  2.8091E+01  2.6836E+01  2.7528E+01  2.7716E+01  2.7730E+01
 45  5.1430E+00  2.2539E+00  2.4933E+00  2.2311E+00  1.9631E+00  3.0647E+00  2.8839E+00  3.0264E+00  2.2913E+00
 46  6.0963E-02  5.0937E-01  3.9253E-01  3.9378E-01  1.0208E-01  6.3536E-01  2.2325E-01  2.3107E-01  1.2549E+00
 47  0.0000E+00  1.3598E-01  3.2168E-02  0.0000E+00  0.0000E+00  0.0000E+00  1.4328E-01  0.0000E+00  1.9935E-01
 48  0.0000E+00  1.7396E-01  2.9513E-02  1.3607E-01  1.7006E-01  0.0000E+00  1.1467E-01  0.0000E+00  8.1346E-02
 49  0.0000E+00  1.8567E-01  0.0000E+00  2.5926E-01  2.8581E-02  2.2306E-02  2.4444E-01  3.2840E-01  0.0000E+00
 50  0.0000E+00  2.6767E-01  2.4062E-01  1.2156E-01  2.7679E-01  2.4008E-01  0.0000E+00  5.8656E-01  2.5273E-01
 51  0.0000E+00  1.5224E-04  5.5134E-04  0.0000E+00  0.0000E+00  6.6103E-04  2.8349E-05  0.0000E+00  3.2254E-04
 52  1.9997E-03  8.2386E-04  4.8232E-04  8.3006E-04  1.2808E-03  9.1386E-04  1.0545E-03  1.1756E-03  5.6477E-04
 53  0.0000E+00  5.1512E-05  1.5039E-06  0.0000E+00  0.0000E+00  0.0000E+00  4.9827E-04  0.0000E+00  0.0000E+00
 54  3.7408E-06  2.2524E-03  2.6083E-03  2.7384E-03  1.6357E-03  1.9851E-03  3.0574E-03  1.2886E-03  2.8186E-03
 55  3.0422E-05  1.3146E-03  1.1105E-03  0.0000E+00  2.4095E-03  1.6632E-03  1.9510E-03  2.1376E-03  1.8136E-03
 56  0.0000E+00  3.5202E-04  0.0000E+00  2.8089E-04  1.1586E-03  0.0000E+00  0.0000E+00  0.0000E+00  3.5131E-04
 57  0.0000E+00  2.6201E-04  0.0000E+00  0.0000E+00  0.0000E+00  0.0000E+00  1.2167E-04  0.0000E+00  2.5457E-06
 58  0.0000E+00  4.8283E-04  0.0000E+00  0.0000E+00  1.8228E-03  0.0000E+00  0.0000E+00  3.8998E-04  5.4010E-04
 59  0.0000E+00  1.5843E-04  0.0000E+00  0.0000E+00  0.0000E+00  0.0000E+00  0.0000E+00  0.0000E+00  0.0000E+00
 60  0.0000E+00  1.8682E-04  0.0000E+00  3.1964E-04  5.7004E-04  0.0000E+00  0.0000E+00  0.0000E+00  0.0000E+00
 61  0.0000E+00  4.1730E-04  0.0000E+00  1.4874E-03  0.0000E+00  0.0000E+00  0.0000E+00  2.9952E-04  0.0000E+00
 62  0.0000E+00  4.8378E-04  0.0000E+00  0.0000E+00  0.0000E+00  0.0000E+00  0.0000E+00  0.0000E+00  0.0000E+00
 63  0.0000E+00  5.4063E-04  0.0000E+00  0.0000E+00  0.0000E+00  0.0000E+00  0.0000E+00  0.0000E+00  0.0000E+00
 64  0.0000E+00  1.3665E-03  0.0000E+00  0.0000E+00  0.0000E+00  1.6780E-03  0.0000E+00  0.0000E+00  0.0000E+00
 65  0.0000E+00  6.0513E-03  4.3946E-03  2.7848E-02  3.5078E-03  0.0000E+00  0.0000E+00  2.4074E-02  3.7023E-03
 66  0.0000E+00  5.0404E-03  0.0000E+00  0.0000E+00  5.2547E-03  0.0000E+00  3.7273E-02  1.8401E-02  9.3442E-03
 67  0.0000E+00  4.2495E-03  0.0000E+00  0.0000E+00  0.0000E+00  0.0000E+00  0.0000E+00  0.0000E+00  0.0000E+00
 68  0.0000E+00  9.0672E-03  0.0000E+00  0.0000E+00  0.0000E+00  0.0000E+00  0.0000E+00  0.0000E+00  0.0000E+00
 69  0.0000E+00  3.2248E-02  0.0000E+00  0.0000E+00  0.0000E+00  7.1430E-03  2.0247E-01  0.0000E+00  0.0000E+00
 70  0.0000E+00  3.7610E-02  0.0000E+00  1.6666E-01  0.0000E+00  0.0000E+00  0.0000E+00  0.0000E+00  1.0692E-01
 71  0.0000E+00  4.2704E-02  0.0000E+00  0.0000E+00  0.0000E+00  1.2184E-01  1.2284E-01  0.0000E+00  0.0000E+00
 72  0.0000E+00  7.9855E-01  6.2538E-01  4.9364E-01  8.3461E-01  0.0000E+00  2.4885E-01  0.0000E+00  0.0000E+00
 73  0.0000E+00  1.8934E-01  0.0000E+00  6.5194E-01  0.0000E+00  0.0000E+00  0.0000E+00  0.0000E+00  3.3596E-01
 74  4.2150E+00  2.5766E-01  1.0816E+00  5.7128E-01  4.2715E-01  1.4995E+00  4.1922E-01  3.0286E-01  3.3498E-01
 75  0.0000E+00  2.3552E-01  3.9937E-01  0.0000E+00  2.3836E-01  1.2509E-01  0.0000E+00  0.0000E+00  0.0000E+00
 76  0.0000E+00  5.1293E-05  0.0000E+00  0.0000E+00  0.0000E+00  0.0000E+00  0.0000E+00  0.0000E+00  0.0000E+00
 77  0.0000E+00  2.1671E-05  0.0000E+00  0.0000E+00  0.0000E+00  0.0000E+00  0.0000E+00  2.6227E-04  0.0000E+00
 78  0.0000E+00  2.4537E-05  0.0000E+00  1.3797E-04  0.0000E+00  0.0000E+00  0.0000E+00  0.0000E+00  0.0000E+00
 79  0.0000E+00  4.5403E-05  0.0000E+00  0.0000E+00  2.3830E-04  0.0000E+00  0.0000E+00  0.0000E+00  0.0000E+00
 80  0.0000E+00  6.0357E-05  5.0813E-05  0.0000E+00  0.0000E+00  0.0000E+00  0.0000E+00  0.0000E+00  0.0000E+00
 81  0.0000E+00  5.7372E-05  0.0000E+00  0.0000E+00  0.0000E+00  8.2286E-07  0.0000E+00  0.0000E+00  0.0000E+00
 82  0.0000E+00  8.9093E-05  0.0000E+00  0.0000E+00  0.0000E+00  0.0000E+00  0.0000E+00  0.0000E+00  0.0000E+00
 83  0.0000E+00  2.0089E-04  0.0000E+00  0.0000E+00  0.0000E+00  0.0000E+00  6.2561E-05  2.0517E-04  0.0000E+00
 84  0.0000E+00  1.9832E-04  0.0000E+00  0.0000E+00  0.0000E+00  0.0000E+00  0.0000E+00  0.0000E+00  0.0000E+00
 85  0.0000E+00  3.0817E-04  0.0000E+00  0.0000E+00  0.0000E+00  0.0000E+00  0.0000E+00  0.0000E+00  0.0000E+00
 86  0.0000E+00  3.7925E-04  0.0000E+00  0.0000E+00  0.0000E+00  0.0000E+00  0.0000E+00  0.0000E+00  0.0000E+00
 87  0.0000E+00  3.7420E-04  0.0000E+00  0.0000E+00  0.0000E+00  0.0000E+00  0.0000E+00  0.0000E+00  0.0000E+00
 88  0.0000E+00  2.4615E-04  0.0000E+00  0.0000E+00  0.0000E+00  0.0000E+00  1.8190E-03  0.0000E+00  0.0000E+00
 89  0.0000E+00  3.2846E-04  0.0000E+00  0.0000E+00  0.0000E+00  0.0000E+00  0.0000E+00  1.2056E-03  0.0000E+00
 90  0.0000E+00  4.5870E-04  0.0000E+00  0.0000E+00  0.0000E+00  0.0000E+00  0.0000E+00  0.0000E+00  0.0000E+00
 91  0.0000E+00  1.2869E-03  0.0000E+00  0.0000E+00  0.0000E+00  0.0000E+00  0.0000E+00  0.0000E+00  0.0000E+00
 92  0.0000E+00  1.9798E-03  0.0000E+00  0.0000E+00  0.0000E+00  0.0000E+00  0.0000E+00  0.0000E+00  0.0000E+00
 93  0.0000E+00  8.4435E-03  0.0000E+00  0.0000E+00  0.0000E+00  0.0000E+00  0.0000E+00  0.0000E+00  0.0000E+00
 94  0.0000E+00  3.1194E-02  0.0000E+00  1.8916E-01  0.0000E+00  0.0000E+00  0.0000E+00  0.0000E+00  1.3187E-02
 95  0.0000E+00  5.6405E-02  1.9176E-02  0.0000E+00  3.9557E-02  1.7285E-01  5.1661E-02  3.1590E-01  0.0000E+00
 96  0.0000E+00  7.1380E-02  0.0000E+00  0.0000E+00  9.2549E-02  0.0000E+00  0.0000E+00  0.0000E+00  0.0000E+00
 97  1.1661E+01  1.5315E+01  1.4773E+01  1.5344E+01  1.3829E+01  1.4767E+01  1.6034E+01  1.5303E+01  1.5493E+01
 98  1.3923E+01  1.3679E+01  1.3940E+01  1.3509E+01  1.4246E+01  1.2844E+01  1.2886E+01  1.4400E+01  1.4552E+01
 99  0.0000E+00  1.1387E-01  0.0000E+00  3.5048E-01  0.0000E+00  0.0000E+00  0.0000E+00  0.0000E+00  2.5113E-01
100  0.0000E+00  7.6783E-01  7.3374E-01  7.6432E-01  4.6921E-01  2.6123E-01  1.3354E-01  8.2056E-01  1.5419E+00
101  0.0000E+00  3.0718E-05  0.0000E+00  0.0000E+00  0.0000E+00  4.3144E-04  0.0000E+00  0.0000E+00  0.0000E+00
102  0.0000E+00  1.2951E-05  0.0000E+00  0.0000E+00  0.0000E+00  0.0000E+00  6.5686E-05  5.6616E-06  0.0000E+00
103  0.0000E+00  6.5068E-05  0.0000E+00  3.4182E-05  0.0000E+00  0.0000E+00  0.0000E+00  0.0000E+00  0.0000E+00
104  0.0000E+00  7.2184E-05  9.8743E-05  0.0000E+00  0.0000E+00  0.0000E+00  0.0000E+00  0.0000E+00  0.0000E+00
105  0.0000E+00  2.2200E-04  0.0000E+00  0.0000E+00  9.4450E-04  4.0861E-04  0.0000E+00  1.0978E-03  0.0000E+00
106  0.0000E+00  4.4525E-04  0.0000E+00  1.6893E-03  1.6472E-03  0.0000E+00  0.0000E+00  3.5770E-04  0.0000E+00
107  0.0000E+00  1.6312E-04  1.3230E-03  0.0000E+00  0.0000E+00  0.0000E+00  0.0000E+00  0.0000E+00  0.0000E+00
108  0.0000E+00  7.1264E-05  0.0000E+00  0.0000E+00  0.0000E+00  0.0000E+00  0.0000E+00  0.0000E+00  0.0000E+00
109  0.0000E+00  1.3041E-04  0.0000E+00  0.0000E+00  0.0000E+00  0.0000E+00  2.9505E-04  0.0000E+00  0.0000E+00
110  0.0000E+00  2.2808E-04  0.0000E+00  0.0000E+00  0.0000E+00  0.0000E+00  0.0000E+00  0.0000E+00  0.0000E+00
111  0.0000E+00  2.7678E-04  0.0000E+00  0.0000E+00  0.0000E+00  0.0000E+00  4.5487E-04  0.0000E+00  0.0000E+00
112  0.0000E+00  3.6086E-04  2.3562E-03  0.0000E+00  0.0000E+00  0.0000E+00  0.0000E+00  0.0000E+00  0.0000E+00
113  0.0000E+00  2.9666E-04  0.0000E+00  0.0000E+00  0.0000E+00  0.0000E+00  0.0000E+00  0.0000E+00  0.0000E+00
114  0.0000E+00  3.7496E-04  0.0000E+00  0.0000E+00  0.0000E+00  0.0000E+00  0.0000E+00  0.0000E+00  0.0000E+00
115  0.0000E+00  1.0553E-03  0.0000E+00  0.0000E+00  3.3059E-03  0.0000E+00  0.0000E+00  0.0000E+00  0.0000E+00
116  0.0000E+00  2.1296E-03  0.0000E+00  0.0000E+00  0.0000E+00  4.3185E-03  0.0000E+00  0.0000E+00  0.0000E+00
117  0.0000E+00  1.7558E-03  0.0000E+00  0.0000E+00  0.0000E+00  4.8860E-03  0.0000E+00  0.0000E+00  0.0000E+00
118  0.0000E+00  1.0004E-02  0.0000E+00  0.0000E+00  0.0000E+00  0.0000E+00  0.0000E+00  0.0000E+00  0.0000E+00
119  0.0000E+00  1.8695E-02  0.0000E+00  1.7446E-03  0.0000E+00  0.0000E+00  0.0000E+00  0.0000E+00  0.0000E+00
120  0.0000E+00  3.2082E-02  0.0000E+00  0.0000E+00  0.0000E+00  0.0000E+00  0.0000E+00  2.6381E-02  0.0000E+00
121  0.0000E+00  3.7608E-02  0.0000E+00  0.0000E+00  0.0000E+00  0.0000E+00  0.0000E+00  0.0000E+00  0.0000E+00
122  0.0000E+00  7.9459E-02  0.0000E+00  0.0000E+00  0.0000E+00  0.0000E+00  0.0000E+00  3.1307E-01  0.0000E+00
123  0.0000E+00  1.5908E-01  0.0000E+00  3.6803E-01  0.0000E+00  0.0000E+00  0.0000E+00  0.0000E+00  0.0000E+00
124  0.0000E+00  3.0494E-01  0.0000E+00  0.0000E+00  0.0000E+00  0.0000E+00  0.0000E+00  6.0091E-01  0.0000E+00
125  0.0000E+00  7.6650E-01  7.3977E-01  0.0000E+00  0.0000E+00  7.5862E-01  0.0000E+00  0.0000E+00  0.0000E+00
126  0.0000E+00  1.6970E-05  0.0000E+00  0.0000E+00  0.0000E+00  0.0000E+00  0.0000E+00  0.0000E+00  0.0000E+00
127  0.0000E+00  1.4106E-05  0.0000E+00  0.0000E+00  0.0000E+00  0.0000E+00  0.0000E+00  0.0000E+00  0.0000E+00
128  0.0000E+00  1.9104E-05  1.6813E-06  0.0000E+00  0.0000E+00  0.0000E+00  0.0000E+00  0.0000E+00  0.0000E+00
129  0.0000E+00  3.8320E-05  0.0000E+00  5.1451E-04  5.2197E-05  0.0000E+00  2.1986E-04  0.0000E+00  0.0000E+00
130  0.0000E+00  5.4535E-05  0.0000E+00  0.0000E+00  0.0000E+00  0.0000E+00  0.0000E+00  3.8291E-04  0.0000E+00
131  0.0000E+00  6.1040E-05  0.0000E+00  0.0000E+00  3.2125E-05  0.0000E+00  0.0000E+00  0.0000E+00  0.0000E+00
132  0.0000E+00  6.7298E-05  0.0000E+00  0.0000E+00  0.0000E+00  0.0000E+00  0.0000E+00  0.0000E+00  1.6388E-03
133  0.0000E+00  8.6357E-05  0.0000E+00  0.0000E+00  0.0000E+00  0.0000E+00  0.0000E+00  0.0000E+00  0.0000E+00
134  0.0000E+00  1.2306E-04  0.0000E+00  0.0000E+00  0.0000E+00  0.0000E+00  0.0000E+00  0.0000E+00  0.0000E+00
135  0.0000E+00  1.9616E-04  0.0000E+00  0.0000E+00  0.0000E+00  0.0000E+00  0.0000E+00  0.0000E+00  0.0000E+00
136  0.0000E+00  2.6436E-04  0.0000E+00  0.0000E+00  0.0000E+00  0.0000E+00  0.0000E+00  0.0000E+00  4.9637E-04
137  0.0000E+00  2.7689E-04  0.0000E+00  0.0000E+00  0.0000E+00  0.0000E+00  0.0000E+00  2.1765E-03  0.0000E+00
138  0.0000E+00  2.3287E-04  0.0000E+00  0.0000E+00  0.0000E+00  0.0000E+00  0.0000E+00  0.0000E+00  0.0000E+00
139  0.0000E+00  5.0648E-04  0.0000E+00  0.0000E+00  0.0000E+00  0.0000E+00  0.0000E+00  0.0000E+00  0.0000E+00
140  0.0000E+00  2.1725E-03  0.0000E+00  4.6955E-03  0.0000E+00  0.0000E+00  0.0000E+00  0.0000E+00  0.0000E+00
141  0.0000E+00  3.5833E-03  0.0000E+00  0.0000E+00  0.0000E+00  0.0000E+00  0.0000E+00  0.0000E+00  0.0000E+00
142  0.0000E+00  5.4881E-03  0.0000E+00  0.0000E+00  0.0000E+00  0.0000E+00  0.0000E+00  0.0000E+00  0.0000E+00
143  0.0000E+00  2.0706E-02  0.0000E+00  2.3687E-02  0.0000E+00  0.0000E+00  0.0000E+00  0.0000E+00  0.0000E+00
144  3.7226E+00  1.5890E+00  1.2835E+00  1.8075E+00  1.8715E+00  1.5671E+00  1.6498E+00  1.7600E+00  1.7701E+00
145  5.7376E+00  2.2835E+00  2.5526E+00  2.8234E+00  2.1555E+00  3.0031E+00  2.8426E+00  2.3751E+00  3.2971E+00
146  8.4623E+00  3.3058E+00  3.3148E+00  3.4351E+00  4.5338E+00  4.7492E+00  4.7402E+00  3.5744E+00  3.4694E+00
147  6.5742E+00  4.8750E+00  4.7360E+00  4.3739E+00  4.6081E+00  6.0088E+00  5.0539E+00  6.2564E+00  5.7092E+00
148  1.7993E+00  4.4212E+00  5.8418E+00  4.2238E+00  4.6621E+00  3.3454E+00  3.9388E+00  4.0480E+00  4.2172E+00
149  3.5145E+00  5.9110E+00  5.6891E+00  6.9214E+00  6.3259E+00  5.7001E+00  6.2034E+00  6.0868E+00  7.0014E+00
150  5.5719E+00  1.2291E+01  1.2315E+01  1.2288E+01  1.4567E+01  1.2458E+01  1.2866E+01  1.1357E+01  9.4853E+00

# AV, chi2 & Mass for <> & i_chain = 1 ...  7 solutions
AV       0.8616      0.8346      0.8421      0.8535      0.8434      0.8416      0.8461      0.8484      0.8447
chi2 2.0906E+00  2.1817E+00  2.1507E+00  2.1468E+00  2.1530E+00  2.1425E+00  2.1517E+00  2.1414E+00  2.1522E+00
Mass 4.9390E-10  5.2631E-10  5.2868E-10  5.2757E-10  5.3004E-10  5.2619E-10  5.2459E-10  5.2206E-10  5.2140E-10
 -16.89                                  [v0_min (km/s) before EX0s...]
  81.08                                  [vd_min (km/s) before EX0s...]


## Synthetic spectrum (Best Model) ##l_obs f_obs f_syn wei
 3070    [Nl_obs]
 3359.00    0.04133   0.41228   -1.000
 3360.00    0.22867   0.40092   -1.000
 3361.00    0.21710   0.40959   -1.000
 3362.00    0.23638   0.43247   -1.000
 3363.00    0.25824   0.45775   -1.000
 3364.00    0.27963   0.47302   -1.000
 3365.00    0.27362   0.47376   -1.000
 3366.00    0.27202   0.46549   -1.000
 3367.00    0.28052   0.45461   -1.000
 3368.00    0.26133   0.44355   -1.000
 3369.00    0.26463   0.43169   -1.000
 3370.00    0.26280   0.41962   -1.000
 3371.00    0.26485   0.41314   -1.000
 3372.00    0.26314   0.41837   -1.000
 3373.00    0.26900   0.43515   -1.000
 3374.00    0.28169   0.45759   -1.000
 3375.00    0.29962   0.47744   -1.000
 3376.00    0.32034   0.48705   -1.000
 3377.00    0.32627   0.48381   -1.000
 3378.00    0.32654   0.47279   -1.000
 3379.00    0.33072   0.46332   -1.000
 3380.00    0.32674   0.46145   -1.000
 3381.00    0.31382   0.46637   -1.000
 3382.00    0.31966   0.47401   -1.000
 3383.00    0.32356   0.48141   -1.000
 3384.00    0.32099   0.48744   -1.000
 3385.00    0.32590   0.49004   -1.000
 3386.00    0.34411   0.48703   -1.000
 3387.00    0.35121   0.48139   -1.000
 3388.00    0.36160   0.47963   -1.000
 3389.00    0.36079   0.48340   -1.000
 3390.00    0.36532   0.48784   -1.000
 3391.00    0.38053   0.48727   -1.000
 3392.00    0.36309   0.48202   -1.000
 3393.00    0.36827   0.47943   -1.000
 3394.00    0.36879   0.48517   -1.000
 3395.00    0.37642   0.49789   -1.000
 3396.00    0.39344   0.51260   -1.000
 3397.00    0.40914   0.52512   -1.000
 3398.00    0.42233   0.53282   -1.000
 3399.00    0.43127   0.53382   -1.000
 3400.00    0.44093   0.52785   -1.000
 3401.00    0.44243   0.51596   -1.000
 3402.00    0.44420   0.50237   -1.000
 3403.00    0.42755   0.49270   -1.000
 3404.00    0.41640   0.48903   -1.000
 3405.00    0.41124   0.48856   -1.000
 3406.00    0.41740   0.48663   -1.000
 3407.00    0.41081   0.48200   -1.000
 3408.00    0.40697   0.47882   -1.000
 3409.00    0.40484   0.48116   -1.000
 3410.00    0.40761   0.48572   -1.000
 3411.00    0.41482   0.48589   -1.000
 3412.00    0.42611   0.48060   -1.000
 3413.00    0.42275   0.47511   -1.000
 3414.00    0.41537   0.47594   -1.000
 3415.00    0.40836   0.48447   -1.000
 3416.00    0.41116   0.49664   -1.000
 3417.00    0.42847   0.50862   -1.000
 3418.00    0.43927   0.51896   -1.000
 3419.00    0.44595   0.52673   -1.000
 3420.00    0.45815   0.52967   -1.000
 3421.00    0.46765   0.52493   -1.000
 3422.00    0.45032   0.51374   -1.000
 3423.00    0.45645   0.50302   -1.000
 3424.00    0.45982   0.49904   -1.000
 3425.00    0.47229   0.50185   -1.000
 3426.00    0.47095   0.50881   -1.000
 3427.00    0.46095   0.51956   -1.000
 3428.00    0.48725   0.53352   -1.000
 3429.00    0.49869   0.54489   -1.000
 3430.00    0.50093   0.54518   -1.000
 3431.00    0.49954   0.53341   -1.000
 3432.00    0.47425   0.51943   -1.000
 3433.00    0.46830   0.51476   -1.000
 3434.00    0.48354   0.52148   -1.000
 3435.00    0.49099   0.53046   -1.000
 3436.00    0.50491   0.53125   -1.000
 3437.00    0.49747   0.52173  138.655
 3438.00    0.46562   0.50572   -1.000
 3439.00    0.46246   0.48721  154.839
 3440.00    0.44938   0.46931  166.143
 3441.00    0.43689   0.45603  171.583
 3442.00    0.43735   0.45099  171.615
 3443.00    0.43941   0.45476  169.709
 3444.00    0.44712   0.46503  162.409
 3445.00    0.46159   0.48002  153.467
 3446.00    0.47847   0.49873  145.569
 3447.00    0.48201   0.51828   -1.000
 3448.00    0.49700   0.53341   -1.000
 3449.00    0.51770   0.53790   -1.000
 3450.00    0.52048   0.52937   -1.000
 3451.00    0.51101   0.51400  937.225
 3452.00    0.49186   0.50236   -1.000
 3453.00    0.49289   0.50017  937.225
 3454.00    0.49772   0.50532   -1.000
 3455.00    0.50229   0.51125   -1.000
 3456.00    0.51286   0.51250   -1.000
 3457.00    0.50318   0.50774  937.225
 3458.00    0.50127   0.49916   -1.000
 3459.00    0.49773   0.48970  138.263
 3460.00    0.48791   0.48293  139.628
 3461.00    0.49831   0.48359   -1.000
 3462.00    0.51143   0.49236   -1.000
 3463.00    0.51730   0.50250   -1.000
 3464.00    0.52307   0.50684   -1.000
 3465.00    0.52429   0.50650   -1.000
 3466.00    0.52128   0.50864   -1.000
 3467.00    0.51850   0.51759   -1.000
 3468.00    0.52092   0.53061   -1.000
 3469.00    0.53039   0.54109   -1.000
 3470.00    0.54593   0.54348   -1.000
 3471.00    0.54541   0.53671   -1.000
 3472.00    0.52254   0.52258   -1.000
 3473.00    0.51687   0.50465   -1.000
 3474.00    0.50218   0.48859   -1.000
 3475.00    0.48950   0.48034  140.014
 3476.00    0.48403   0.48313  143.741
 3477.00    0.48377   0.49495  168.896
 3478.00    0.50633   0.50979  937.225
 3479.00    0.52898   0.52270   -1.000
 3480.00    0.53899   0.53079   -1.000
 3481.00    0.53656   0.53223   -1.000
 3482.00    0.54196   0.52841   -1.000
 3483.00    0.54179   0.52428   -1.000
 3484.00    0.54506   0.52548   -1.000
 3485.00    0.53495   0.53316   -1.000
 3486.00    0.54949   0.54128   -1.000
 3487.00    0.56386   0.54211   -1.000
 3488.00    0.55349   0.53320   -1.000
 3489.00    0.53374   0.51917   -1.000
 3490.00    0.52267   0.50894   -1.000
 3491.00    0.51322   0.50817   -1.000
 3492.00    0.51496   0.51335   -1.000
 3493.00    0.51542   0.51673   -1.000
 3494.00    0.51849   0.51401   -1.000
 3495.00    0.51700   0.50686   -1.000
 3496.00    0.50587   0.50187   -1.000
 3497.00    0.51180   0.50433   -1.000
 3498.00    0.53094   0.51335   -1.000
 3499.00    0.53770   0.52306   -1.000
 3500.00    0.55217   0.52895   -1.000
 3501.00    0.56609   0.53229   -1.000
 3502.00    0.55708   0.53561   -1.000
 3503.00    0.55780   0.53762   -1.000
 3504.00    0.55937   0.53554   -1.000
 3505.00    0.55432   0.52979   -1.000
 3506.00    0.53744   0.52387   -1.000
 3507.00    0.53483   0.52029   -1.000
 3508.00    0.54564   0.51865   -1.000
 3509.00    0.55106   0.51699   -1.000
 3510.00    0.53907   0.51385   -1.000
 3511.00    0.52352   0.50884   -1.000
 3512.00    0.53048   0.50287   -1.000
 3513.00    0.52746   0.49915   -1.000
 3514.00    0.52149   0.50248   -1.000
 3515.00    0.51925   0.51572   -1.000
 3516.00    0.55042   0.53466   -1.000
 3517.00    0.57040   0.54913   -1.000
 3518.00    0.56871   0.55060   -1.000
 3519.00    0.56252   0.53984   -1.000
 3520.00    0.55053   0.52464   -1.000
 3521.00    0.53467   0.51171   -1.000
 3522.00    0.52958   0.50178   -1.000
 3523.00    0.51842   0.49241   -1.000
 3524.00    0.49852   0.48376   -1.000
 3525.00    0.48356   0.48104  142.682
 3526.00    0.48741   0.48831  170.319
 3527.00    0.50931   0.50398   -1.000
 3528.00    0.53606   0.52241   -1.000
 3529.00    0.55502   0.53764   -1.000
 3530.00    0.56751   0.54622   -1.000
 3531.00    0.56387   0.54784   -1.000
 3532.00    0.55587   0.54394   -1.000
 3533.00    0.54747   0.53801   -1.000
 3534.00    0.55432   0.53485   -1.000
 3535.00    0.56048   0.53809   -1.000
 3536.00    0.56613   0.54754   -1.000
 3537.00    0.56174   0.55933  937.225
 3538.00    0.57126   0.56886  937.225
 3539.00    0.57820   0.57334  937.225
 3540.00    0.57117   0.57277   -1.000
 3541.00    0.56711   0.57035   -1.000
 3542.00    0.56659   0.57046   -1.000
 3543.00    0.57222   0.57411   -1.000
 3544.00    0.57137   0.57777   -1.000
 3545.00    0.56716   0.57794   -1.000
 3546.00    0.56873   0.57481   -1.000
 3547.00    0.57480   0.57122  937.225
 3548.00    0.57544   0.56990   -1.000
 3549.00    0.57750   0.57162   -1.000
 3550.00    0.57085   0.57440   -1.000
 3551.00    0.55471   0.57405   -1.000
 3552.00    0.54369   0.56810   -1.000
 3553.00    0.53446   0.55950   -1.000
 3554.00    0.55058   0.55441   -1.000
 3555.00    0.55601   0.55577  937.225
 3556.00    0.54767   0.56170   -1.000
 3557.00    0.55284   0.56776   -1.000
 3558.00    0.55431   0.57083   -1.000
 3559.00    0.55296   0.57145   -1.000
 3560.00    0.55414   0.57228   -1.000
 3561.00    0.55395   0.57329   -1.000
 3562.00    0.55257   0.57023   -1.000
 3563.00    0.55483   0.55877   -1.000
 3564.00    0.54511   0.54021   -1.000
 3565.00    0.51788   0.52212  140.318
 3566.00    0.49330   0.51152  144.670
 3567.00    0.50139   0.50835  143.097
 3568.00    0.50158   0.50670  143.373
 3569.00    0.49324   0.50194  147.916
 3570.00    0.49344   0.49532  149.167
 3571.00    0.49577   0.49176  144.018
 3572.00    0.50204   0.49346  167.149
 3573.00    0.51033   0.49865   -1.000
 3574.00    0.52100   0.50533   -1.000
 3575.00    0.52707   0.51242   -1.000
 3576.00    0.52828   0.51833   -1.000
 3577.00    0.52980   0.52100   -1.000
 3578.00    0.53823   0.51793   -1.000
 3579.00    0.52556   0.50864   -1.000
 3580.00    0.49830   0.49634  157.037
 3581.00    0.47283   0.48640  164.162
 3582.00    0.46690   0.48221  165.076
 3583.00    0.47562   0.48101  166.414
 3584.00    0.47561   0.47614  170.911
 3585.00    0.46097   0.46555  175.962
 3586.00    0.44679   0.45578  176.126
 3587.00    0.46114   0.45547  167.007
 3588.00    0.47313   0.46780  158.260
 3589.00    0.48854   0.48834  149.261
 3590.00    0.50130   0.50894  166.675
 3591.00    0.52669   0.52316   -1.000
 3592.00    0.54154   0.53026   -1.000
 3593.00    0.55204   0.53467   -1.000
 3594.00    0.55305   0.54177   -1.000
 3595.00    0.56647   0.55256   -1.000
 3596.00    0.56988   0.56354   -1.000
 3597.00    0.57010   0.57150   -1.000
 3598.00    0.59046   0.57603   -1.000
 3599.00    0.60065   0.57692   -1.000
 3600.00    0.59498   0.57176   -1.000
 3601.00    0.58349   0.56020   -1.000
 3602.00    0.56720   0.54642   -1.000
 3603.00    0.55632   0.53677   -1.000
 3604.00    0.55353   0.53368   -1.000
 3605.00    0.55368   0.53380   -1.000
 3606.00    0.55035   0.53214   -1.000
 3607.00    0.53943   0.52713   -1.000
 3608.00    0.53426   0.52151   -1.000
 3609.00    0.52924   0.51894   -1.000
 3610.00    0.53022   0.52126   -1.000
 3611.00    0.52921   0.52748   -1.000
 3612.00    0.54067   0.53544   -1.000
 3613.00    0.54451   0.54438  937.225
 3614.00    0.55403   0.55478  937.225
 3615.00    0.55955   0.56263   -1.000
 3616.00    0.56934   0.56096   -1.000
 3617.00    0.55222   0.54798   -1.000
 3618.00    0.51151   0.53196   -1.000
 3619.00    0.50056   0.52507   -1.000
 3620.00    0.52403   0.53246   -1.000
 3621.00    0.55450   0.54852   -1.000
 3622.00    0.57635   0.56440   -1.000
 3623.00    0.58825   0.57679   -1.000
 3624.00    0.58626   0.58906   -1.000
 3625.00    0.58537   0.60445   -1.000
 3626.00    0.59643   0.62034   -1.000
 3627.00    0.60376   0.62764   -1.000
 3628.00    0.60362   0.61832   -1.000
 3629.00    0.58467   0.59273   -1.000
 3630.00    0.56240   0.56250  937.225
 3631.00    0.53605   0.54237   -1.000
 3632.00    0.52581   0.53959   -1.000
 3633.00    0.53191   0.54928   -1.000
 3634.00    0.53857   0.56109   -1.000
 3635.00    0.54892   0.56929   -1.000
 3636.00    0.55524   0.57645   -1.000
 3637.00    0.57421   0.58650   -1.000
 3638.00    0.57812   0.59818   -1.000
 3639.00    0.58711   0.60641   -1.000
 3640.00    0.57744   0.60720   -1.000
 3641.00    0.58235   0.59996   -1.000
 3642.00    0.58231   0.58773   -1.000
 3643.00    0.57493   0.57499  937.225
 3644.00    0.56404   0.56468  937.225
 3645.00    0.55412   0.55714   -1.000
 3646.00    0.54436   0.55200   -1.000
 3647.00    0.54743   0.54962  937.225
 3648.00    0.55078   0.55050  937.225
 3649.00    0.55434   0.55510  937.225
 3650.00    0.55694   0.56360   -1.000
 3651.00    0.57166   0.57581   -1.000
 3652.00    0.58895   0.58968   -1.000
 3653.00    0.59942   0.60286   -1.000
 3654.00    0.61180   0.61442   -1.000
 3655.00    0.60713   0.62449   -1.000
 3656.00    0.61895   0.63267   -1.000
 3657.00    0.61786   0.63790   -1.000
 3658.00    0.61294   0.63979   -1.000
 3659.00    0.61219   0.63844   -1.000
 3660.00    0.61607   0.63381   -1.000
 3661.00    0.61921   0.62648   -1.000
 3662.00    0.61520   0.61894   -1.000
 3663.00    0.61078   0.61450   -1.000
 3664.00    0.61448   0.61434   -1.000
 3665.00    0.60822   0.61622   -1.000
 3666.00    0.61057   0.61655   -1.000
 3667.00    0.61206   0.61320   -1.000
 3668.00    0.59925   0.60759   -1.000
 3669.00    0.59204   0.60384   -1.000
 3670.00    0.59455   0.60553   -1.000
 3671.00    0.59409   0.61246   -1.000
 3672.00    0.61131   0.62055   -1.000
 3673.00    0.62286   0.62503   -1.000
 3674.00    0.61759   0.62334   -1.000
 3675.00    0.61852   0.61521   -1.000
 3676.00    0.61299   0.60233   -1.000
 3677.00    0.60179   0.58840   -1.000
 3678.00    0.59289   0.57847   -1.000
 3679.00    0.58517   0.57575   -1.000
 3680.00    0.58365   0.57938  937.225
 3681.00    0.59493   0.58573   -1.000
 3682.00    0.60559   0.59071   -1.000
 3683.00    0.60652   0.59123   -1.000
 3684.00    0.58952   0.58596  937.225
 3685.00    0.58120   0.57708  937.225
 3686.00    0.57093   0.57101  937.225
 3687.00    0.56446   0.57479   -1.000
 3688.00    0.57454   0.58963   -1.000
 3689.00    0.59215   0.60867   -1.000
 3690.00    0.61568   0.62316   -1.000
 3691.00    0.62572   0.62947   -1.000
 3692.00    0.63146   0.63013   -1.000
 3693.00    0.62790   0.62935   -1.000
 3694.00    0.62424   0.62894   -1.000
 3695.00    0.61727   0.62783   -1.000
 3696.00    0.61843   0.62650   -1.000
 3697.00    0.62418   0.63008   -1.000
 3698.00    0.63708   0.64252   -1.000
 3699.00    0.64867   0.65976   -1.000
 3700.00    0.66047   0.66925   -1.000
 3701.00    0.65648   0.65941   -1.000
 3702.00    0.63101   0.62939  937.225
 3703.00    0.59626   0.59113  937.225
 3704.00    0.56455   0.56078  937.225
 3705.00    0.54782   0.54854  937.225
 3706.00    0.55269   0.55351  937.225
 3707.00    0.56550   0.56675  937.225
 3708.00    0.57241   0.57787  937.225
 3709.00    0.58323   0.58151   -1.000
 3710.00    0.59837   0.58028   -1.000
 3711.00    0.60302   0.58231   -1.000
 3712.00    0.61124   0.59500   -1.000
 3713.00    0.63659   0.61898   -1.000
 3714.00    0.66302   0.64692   -1.000
 3715.00    0.67528   0.66854  896.468
 3716.00    0.68563   0.67644   -1.000
 3717.00    0.67843   0.66614   -1.000
 3718.00    0.63816   0.63539   -1.000
 3719.00    0.58943   0.58802   -1.000
 3720.00    0.53945   0.53963  499.519
 3721.00    0.51596   0.51097  169.870
 3722.00    0.51979   0.51439   -1.000
 3723.00    0.55322   0.54727   -1.000
 3724.00    0.60545   0.59325   -1.000
 3725.00    0.64665   0.63168   -1.000
 3726.00    0.65507   0.65271  937.225
 3727.00    0.65540   0.66127   -1.000
 3728.00    0.65139   0.66537   -1.000
 3729.00    0.64954   0.66499   -1.000
 3730.00    0.64893   0.65185  937.225
 3731.00    0.63151   0.61764   -1.000
 3732.00    0.58181   0.56597   -1.000
 3733.00    0.51582   0.51244  140.408
 3734.00    0.47729   0.47592  155.203
 3735.00    0.46621   0.46925  158.092
 3736.00    0.47719   0.49438  148.559
 3737.00    0.52184   0.54135  166.556
 3738.00    0.58062   0.59616   -1.000
 3739.00    0.62683   0.64467   -1.000
 3740.00    0.66047   0.67546   -1.000
 3741.00    0.67854   0.68332  937.225
 3742.00    0.67387   0.67269   -1.000
 3743.00    0.65274   0.65215   -1.000
 3744.00    0.62686   0.62828   -1.000
 3745.00    0.59792   0.60273  937.225
 3746.00    0.57800   0.57378   -1.000
 3747.00    0.54688   0.54085  141.061
 3748.00    0.50749   0.50896  148.743
 3749.00    0.47678   0.48988  182.156
 3750.00    0.48627   0.49646   -1.000
 3751.00    0.53487   0.53172  937.225
 3752.00    0.58979   0.58499   -1.000
 3753.00    0.64666   0.63919   -1.000
 3754.00    0.69224   0.67981   -1.000
 3755.00    0.72081   0.69840   -1.000
 3756.00    0.71254   0.69359   -1.000
 3757.00    0.67868   0.67322   -1.000
 3758.00    0.64927   0.65202  937.225
 3759.00    0.64481   0.64177   -1.000
 3760.00    0.66070   0.64479   -1.000
 3761.00    0.68538   0.65542   -1.000
 3762.00    0.69607   0.66586   -1.000
 3763.00    0.69567   0.67067   -1.000
 3764.00    0.69082   0.66791   -1.000
 3765.00    0.67937   0.65762   -1.000
 3766.00    0.65968   0.64008   -1.000
 3767.00    0.63334   0.61554   -1.000
 3768.00    0.61276   0.58665   -1.000
 3769.00    0.59114   0.56069   -1.000
 3770.00    0.57823   0.54926   -1.000
 3771.00    0.58806   0.56067   -1.000
 3772.00    0.62297   0.59207   -1.000
 3773.00    0.65877   0.62994   -1.000
 3774.00    0.67877   0.66141   -1.000
 3775.00    0.69983   0.68317   -1.000
 3776.00    0.72353   0.70080   -1.000
 3777.00    0.73608   0.72051   -1.000
 3778.00    0.75251   0.74319   -1.000
 3779.00    0.77459   0.76546   -1.000
 3780.00    0.79103   0.78282   -1.000
 3781.00    0.80205   0.79242   -1.000
 3782.00    0.80017   0.79401  869.588
 3783.00    0.79929   0.78899   -1.000
 3784.00    0.79962   0.77760   -1.000
 3785.00    0.78832   0.76003   -1.000
 3786.00    0.76115   0.73874   -1.000
 3787.00    0.73835   0.71933   -1.000
 3788.00    0.72308   0.70725   -1.000
 3789.00    0.72000   0.70352   -1.000
 3790.00    0.71026   0.70343   -1.000
 3791.00    0.70123   0.69985   -1.000
 3792.00    0.69548   0.68699   -1.000
 3793.00    0.67310   0.66254   -1.000
 3794.00    0.63517   0.62808   -1.000
 3795.00    0.60395   0.58796   -1.000
 3796.00    0.57116   0.54809   -1.000
 3797.00    0.53007   0.51828   -1.000
 3798.00    0.51158   0.51183   -1.000
 3799.00    0.53440   0.53737   -1.000
 3800.00    0.58734   0.58829  937.225
 3801.00    0.64954   0.64663  937.225
 3802.00    0.69298   0.69523   -1.000
 3803.00    0.72379   0.72666   -1.000
 3804.00    0.74358   0.74141  937.225
 3805.00    0.75113   0.74487   -1.000
 3806.00    0.74691   0.74557  937.225
 3807.00    0.74346   0.75183   -1.000
 3808.00    0.76170   0.76608   -1.000
 3809.00    0.78144   0.78280  937.225
 3810.00    0.79292   0.79189  937.225
 3811.00    0.79274   0.78515   -1.000
 3812.00    0.78063   0.76334   -1.000
 3813.00    0.75215   0.73634   -1.000
 3814.00    0.72917   0.71704   -1.000
 3815.00    0.72474   0.71270   -1.000
 3816.00    0.71937   0.72058  937.225
 3817.00    0.73060   0.72963  937.225
 3818.00    0.74164   0.72872   -1.000
 3819.00    0.72128   0.71704   -1.000
 3820.00    0.69092   0.70448   -1.000
 3821.00    0.69039   0.70020   -1.000
 3822.00    0.70653   0.70106   -1.000
 3823.00    0.71592   0.69555   -1.000
 3824.00    0.68588   0.67911   -1.000
 3825.00    0.65542   0.65895  144.677
 3826.00    0.64562   0.64361  146.844
 3827.00    0.63812   0.63459  145.263
 3828.00    0.63170   0.62834  142.882
 3829.00    0.62037   0.62011  141.381
 3830.00    0.61009   0.60468  144.178
 3831.00    0.57804   0.57803  151.872
 3832.00    0.54065   0.54048  162.690
 3833.00    0.50605   0.50009  165.780
 3834.00    0.47368   0.46979  161.605
 3835.00    0.47004   0.45902  155.616
 3836.00    0.48335   0.46873  153.651
 3837.00    0.49635   0.49319  157.170
 3838.00    0.51826   0.52490  159.596
 3839.00    0.54115   0.55928  155.241
 3840.00    0.57811   0.59607  180.786
 3841.00    0.63029   0.63533  937.225
 3842.00    0.67771   0.67461   -1.000
 3843.00    0.70558   0.70890  937.225
 3844.00    0.72881   0.73434  937.225
 3845.00    0.73930   0.75125   -1.000
 3846.00    0.74408   0.76259   -1.000
 3847.00    0.75791   0.76919   -1.000
 3848.00    0.76212   0.77022   -1.000
 3849.00    0.75300   0.76812   -1.000
 3850.00    0.74454   0.76946   -1.000
 3851.00    0.74542   0.77814   -1.000
 3852.00    0.75971   0.79012   -1.000
 3853.00    0.77658   0.79708   -1.000
 3854.00    0.76899   0.79448   -1.000
 3855.00    0.75473   0.78431   -1.000
 3856.00    0.74773   0.77136   -1.000
 3857.00    0.73152   0.75894   -1.000
 3858.00    0.71876   0.74974   -1.000
 3859.00    0.70460   0.74789   -1.000
 3860.00    0.70370   0.75666   -1.000
 3861.00    0.73136   0.77347   -1.000
 3862.00    0.76755   0.79026   -1.000
 3863.00    0.78842   0.79986   -1.000
 3864.00    0.80411   0.80149  937.225
 3865.00    0.80202   0.79986  937.225
 3866.00    0.78559   0.79984   -1.000
 3867.00    0.78907   0.80201   -1.000
 3868.00    0.78136   0.80234   -1.000
 3869.00    0.76061   0.79582   -1.000
 3870.00    0.73969   0.78132   -1.000
 3871.00    0.71340   0.76313   -1.000
 3872.00    0.70837   0.74950   -1.000
 3873.00    0.73194   0.74708   -1.000
 3874.00    0.75727   0.75415   -1.000
 3875.00    0.76968   0.75986   -1.000
 3876.00    0.75893   0.75436   -1.000
 3877.00    0.73095   0.73918   -1.000
 3878.00    0.70086   0.72492   -1.000
 3879.00    0.69691   0.71922   -1.000
 3880.00    0.69616   0.71949   -1.000
 3881.00    0.68141   0.71787   -1.000
 3882.00    0.66709   0.70992   -1.000
 3883.00    0.67409   0.69470   -1.000
 3884.00    0.67459   0.66968   -1.000
 3885.00    0.64792   0.63248   -1.000
 3886.00    0.61401   0.58681   -1.000
 3887.00    0.58086   0.54478   -1.000
 3888.00    0.55019   0.52157   -1.000
 3889.00    0.54973   0.52729   -1.000
 3890.00    0.59155   0.56088   -1.000
 3891.00    0.64672   0.60919   -1.000
 3892.00    0.68729   0.65399   -1.000
 3893.00    0.70742   0.68447   -1.000
 3894.00    0.71954   0.70254   -1.000
 3895.00    0.73078   0.71623   -1.000
 3896.00    0.76383   0.73030   -1.000
 3897.00    0.77590   0.74336   -1.000
 3898.00    0.77981   0.75220   -1.000
 3899.00    0.78937   0.75784   -1.000
 3900.00    0.79051   0.76441   -1.000
 3901.00    0.80331   0.77244   -1.000
 3902.00    0.81957   0.77795   -1.000
 3903.00    0.80945   0.77798   -1.000
 3904.00    0.80247   0.77476   -1.000
 3905.00    0.78781   0.77458   -1.000
 3906.00    0.78776   0.78392  937.225
 3907.00    0.80374   0.80434  921.347
 3908.00    0.83193   0.83018  867.632
 3909.00    0.85569   0.85246  850.523
 3910.00    0.87481   0.86552   -1.000
 3911.00    0.88514   0.86880   -1.000
 3912.00    0.88065   0.86416   -1.000
 3913.00    0.87763   0.85464   -1.000
 3914.00    0.85777   0.84506   -1.000
 3915.00    0.84869   0.83912  882.421
 3916.00    0.83993   0.83579  893.525
 3917.00    0.84878   0.83100   -1.000
 3918.00    0.83741   0.82262   -1.000
 3919.00    0.81332   0.81250  937.225
 3920.00    0.80207   0.80435   -1.000
 3921.00    0.79908   0.80078   -1.000
 3922.00    0.79429   0.80157   -1.000
 3923.00    0.79793   0.80328   -1.000
 3924.00    0.79926   0.80046  937.225
 3925.00    0.78342   0.78745   -1.000
 3926.00    0.74789   0.76144   -1.000
 3927.00    0.70731   0.72343   -1.000
 3928.00    0.65275   0.67611  157.353
 3929.00    0.60209   0.62040  184.447
 3930.00    0.54627   0.55447  216.239
 3931.00    0.47748   0.48010   -1.000
 3932.00    0.40888   0.41096   -1.000
 3933.00    0.36815   0.37014   -1.000
 3934.00    0.38047   0.37521   -1.000
 3935.00    0.43014   0.42451   -1.000
 3936.00    0.49236   0.49926  206.993
 3937.00    0.55802   0.57871  170.913
 3938.00    0.61420   0.64911   -1.000
 3939.00    0.66487   0.70381   -1.000
 3940.00    0.70606   0.74108   -1.000
 3941.00    0.73237   0.76244   -1.000
 3942.00    0.74291   0.77269   -1.000
 3943.00    0.75313   0.77914  115.625
 3944.00    0.76053   0.78778   -1.000
 3945.00    0.78956   0.79989   99.369
 3946.00    0.81944   0.81208   94.673
 3947.00    0.82363   0.81997   93.795
 3948.00    0.81801   0.82262   92.507
 3949.00    0.82156   0.82251   89.131
 3950.00    0.83929   0.82186   86.930
 3951.00    0.84779   0.82193   87.580
 3952.00    0.84701   0.82427   88.275
 3953.00    0.85610   0.82843   86.513
 3954.00    0.86453   0.83015   84.990
 3955.00    0.85402   0.82567   86.441
 3956.00    0.82249   0.81650   89.298
 3957.00    0.80975   0.80764   90.053
 3958.00    0.81838   0.79974   89.176
 3959.00    0.81823   0.78628   92.820
 3960.00    0.78698   0.76146  103.372
 3961.00    0.72796   0.72694  116.406
 3962.00    0.68110   0.68855  127.383
 3963.00    0.64430   0.64782   48.490
 3964.00    0.59784   0.59852   14.812
 3965.00    0.53092   0.53338   17.559
 3966.00    0.44596   0.45421   21.653
 3967.00    0.36161   0.37645   25.980
 3968.00    0.30515   0.32373   27.625
 3969.00    0.29901   0.31430   24.886
 3970.00    0.34187   0.35036   20.470
 3971.00    0.40862   0.41840   16.890
 3972.00    0.48079   0.49831   18.082
 3973.00    0.56224   0.57431  123.546
 3974.00    0.63529   0.63951  109.622
 3975.00    0.69118   0.69327   99.302
 3976.00    0.74105   0.73737   91.980
 3977.00    0.77889   0.77394   86.725
 3978.00    0.81187   0.80381   82.155
 3979.00    0.84351   0.82555   78.472
 3980.00    0.86407   0.83761   77.920
 3981.00    0.87167   0.84221   78.704
 3982.00    0.87351   0.84545   79.801
 3983.00    0.87599   0.85310   78.938
 3984.00    0.88749   0.86600   77.285
 3985.00    0.90249   0.88037   75.822
 3986.00    0.91309   0.89279   74.551
 3987.00    0.92419   0.90276   73.269
 3988.00    0.93071   0.91061   72.792
 3989.00    0.93442   0.91683   72.924
 3990.00    0.93883   0.92337   72.170
 3991.00    0.95162   0.93191   70.444
 3992.00    0.96417   0.94106   69.281
 3993.00    0.96921   0.94628   70.360
 3994.00    0.95692   0.94309   72.070
 3995.00    0.94483   0.93177   73.670
 3996.00    0.93563   0.91894   74.905
 3997.00    0.92294   0.91331   75.001
 3998.00    0.91879   0.91878   72.852
 3999.00    0.94018   0.93192   69.649
 4000.00    0.95931   0.94564   67.584
 4001.00    0.98243   0.95403   66.557
 4002.00    0.99744   0.95394   66.096
 4003.00    0.99695   0.94498   68.132
 4004.00    0.97000   0.93125   72.652
 4005.00    0.93008   0.92185   75.434
 4006.00    0.92745   0.92495   73.875
 4007.00    0.95656   0.94004   69.802
 4008.00    0.98083   0.95861   67.478
 4009.00    0.98589   0.97240   66.667
 4010.00    0.99666   0.97910   66.058
 4011.00    1.00058   0.98072   66.002
 4012.00    0.99275   0.98064   66.471
 4013.00    0.99248   0.98184   66.640
 4014.00    1.01034   0.98539   66.019
 4015.00    1.00986   0.99022   65.394
 4016.00    0.99994   0.99503   66.054
 4017.00    0.99860   0.99988   66.631
 4018.00    0.99995   1.00522   66.122
 4019.00    1.00294   1.00979   65.334
 4020.00    1.00511   1.01080   65.697
 4021.00    0.99460   1.00664   66.561
 4022.00    0.99427   0.99861   66.947
 4023.00    0.99682   0.99019   67.406
 4024.00    0.99046   0.98611   67.442
 4025.00    0.98862   0.99017   65.544
 4026.00    1.00301   1.00060   63.405
 4027.00    1.02181   1.00880   62.552
 4028.00    1.02572   1.00566   63.600
 4029.00    1.01708   0.98939   66.663
 4030.00    0.97555   0.96682   70.932
 4031.00    0.94781   0.94822   73.409
 4032.00    0.94391   0.94053   73.833
 4033.00    0.94804   0.94534   72.514
 4034.00    0.96854   0.96113   69.821
 4035.00    0.98227   0.98479   66.330
 4036.00    1.01911   1.01083   63.267
 4037.00    1.04254   1.03171   61.501
 4038.00    1.05262   1.04142   61.653
 4039.00    1.03915   1.04001   63.047
 4040.00    1.02586   1.03252   64.383
 4041.00    1.02531   1.02239   64.977
 4042.00    1.02050   1.00708   65.886
 4043.00    0.99790   0.98286   69.840
 4044.00    0.95312   0.95430   76.518
 4045.00    0.91271   0.93557   80.344
 4046.00    0.91752   0.93899   75.744
 4047.00    0.96338   0.96296   68.899
 4048.00    1.00805   0.99329   65.272
 4049.00    1.02952   1.01611   63.703
 4050.00    1.03092   1.02631   63.252
 4051.00    1.02968   1.02559   64.004
 4052.00    1.02170   1.01781   65.787
 4053.00    1.01597   1.00761   67.342
 4054.00    1.00071   0.99907   68.258
 4055.00    0.99730   0.99383   68.771
 4056.00    1.00000   0.99192   69.291
 4057.00    0.99786   0.99425   69.680
 4058.00    0.99738   1.00141   68.424
 4059.00    1.01880   1.00912   66.142
 4060.00    1.03292   1.00852   65.395
 4061.00    1.01863   0.99442   67.367
 4062.00    0.98733   0.97145   72.391
 4063.00    0.94995   0.95085   76.034
 4064.00    0.94644   0.94151   74.097
 4065.00    0.96677   0.94476   70.784
 4066.00    0.98386   0.95551   69.061
 4067.00    0.99230   0.96686   67.100
 4068.00    1.01239   0.97338   65.214
 4069.00    1.02562   0.97134   65.154
 4070.00    1.01457   0.96106   67.927
 4071.00    0.99301   0.94960   70.259
 4072.00    0.97944   0.94556   69.180
 4073.00    0.98954   0.94888   67.054
 4074.00    0.99976   0.94970   67.529
 4075.00    0.97890   0.93940   71.455
 4076.00    0.95003   0.92121   76.810
 4077.00    0.92126   0.90857   77.913
 4078.00    0.91892   0.91328   74.557
 4079.00    0.95113   0.93507   69.349
 4080.00    0.98680   0.96152   65.173
 4081.00    1.01226   0.97853   63.936
 4082.00    1.00834   0.98062   65.347
 4083.00    0.99386   0.97275   67.358
 4084.00    0.97505   0.96465   67.895
 4085.00    0.96695   0.96400   66.532
 4086.00    0.98632   0.97230   64.171
 4087.00    1.01808   0.98499   61.782
 4088.00    1.04148   0.99509   60.307
 4089.00    1.03734   0.99781   60.858
 4090.00    1.01728   0.99305   62.125
 4091.00    0.99707   0.98356   63.183
 4092.00    0.98740   0.97105   63.736
 4093.00    0.98355   0.95522   64.023
 4094.00    0.96797   0.93527   65.625
 4095.00    0.94385   0.91095   68.532
 4096.00    0.91972   0.88264   70.403
 4097.00    0.89803   0.84954   71.005
 4098.00    0.86196   0.80833   72.787
 4099.00    0.81279   0.75768   -1.000
 4100.00    0.73443   0.70603   84.430
 4101.00    0.67248   0.67254   88.526
 4102.00    0.67412   0.67500   85.136
 4103.00    0.72834   0.71485   77.934
 4104.00    0.80703   0.77474   72.307
 4105.00    0.85837   0.83208   68.845
 4106.00    0.89884   0.87343   67.180
 4107.00    0.92531   0.89764   67.113
 4108.00    0.92799   0.91013   67.934
 4109.00    0.93277   0.91763   69.217
 4110.00    0.93913   0.92572   69.804
 4111.00    0.94705   0.93751   68.717
 4112.00    0.96231   0.95318   67.224
 4113.00    0.98085   0.97057   66.107
 4114.00    0.99309   0.98615   65.177
 4115.00    1.00610   0.99578   64.767
 4116.00    1.01037   0.99677   65.352
 4117.00    1.00096   0.99022   66.966
 4118.00    0.98957   0.98113   68.937
 4119.00    0.98652   0.97528   69.319
 4120.00    0.99814   0.97521   68.437
 4121.00    0.99571   0.97924   67.908
 4122.00    0.99899   0.98513   67.818
 4123.00    1.00127   0.99237   66.954
 4124.00    1.01276   0.99994   65.966
 4125.00    1.02347   1.00449   66.021
 4126.00    1.01709   1.00315   67.069
 4127.00    1.00436   0.99711   68.339
 4128.00    0.98950   0.99016   68.828
 4129.00    0.98707   0.98389   69.287
 4130.00    0.97841   0.97668   70.472
 4131.00    0.97185   0.96850   72.749
 4132.00    0.95049   0.96421   74.575
 4133.00    0.94833   0.96965   74.093
 4134.00    0.96343   0.98534   71.266
 4135.00    0.99134   1.00616   67.915
 4136.00    1.02703   1.02629   65.993
 4137.00    1.04171   1.04253   64.965
 4138.00    1.04202   1.05333   64.122
 4139.00    1.05582   1.05596   64.243
 4140.00    1.04874   1.04681   66.068
 4141.00    1.02617   1.02600   70.089
 4142.00    0.98245   1.00115   75.634
 4143.00    0.95733   0.98468   -1.000
 4144.00    0.95308   0.98509   -1.000
 4145.00    0.97972   0.99967   70.351
 4146.00    1.00990   1.01699   68.203
 4147.00    1.00988   1.02715   67.998
 4148.00    1.00424   1.02895   -1.000
 4149.00    0.99385   1.02722   -1.000
 4150.00    0.98590   1.02579   -1.000
 4151.00    0.99713   1.02431   -1.000
 4152.00    1.00211   1.02072   71.057
 4153.00    0.98728   1.01515   -1.000
 4154.00    0.98420   1.01068   -1.000
 4155.00    0.98943   1.01083   70.752
 4156.00    0.99276   1.01692   70.535
 4157.00    1.08440   1.02738   70.554
 4158.00    1.20709   1.03885   -1.000
 4159.00    1.02903   1.04807   68.729
 4160.00    0.84994   1.05385   -1.000
 4161.00    0.98732   1.05740   -1.000
 4162.00    1.05434   1.06062   65.607
 4163.00    1.03575   1.06380   -1.000
 4164.00    1.03060   1.06525   -1.000
 4165.00    1.03293   1.06318   -1.000
 4166.00    1.02147   1.05819   -1.000
 4167.00    1.01018   1.05312   -1.000
 4168.00    1.00506   1.04873   -1.000
 4169.00    1.00810   1.04107   -1.000
 4170.00    0.99894   1.02509   -1.000
 4171.00    0.97518   1.00200   -1.000
 4172.00    0.94088   0.98147   -1.000
 4173.00    0.93280   0.97391   -1.000
 4174.00    0.94403   0.98106   -1.000
 4175.00    0.95770   0.99461   -1.000
 4176.00    0.96042   1.00471   -1.000
 4177.00    0.96658   1.00931   -1.000
 4178.00    0.97241   1.01314   -1.000
 4179.00    0.98881   1.01961   -1.000
 4180.00    1.00003   1.02649   -1.000
 4181.00    0.99401   1.03042   -1.000
 4182.00    0.99180   1.03266   -1.000
 4183.00    0.99437   1.03597   -1.000
 4184.00    1.01233   1.03887   67.792
 4185.00    1.01590   1.03739   68.432
 4186.00    0.99650   1.03119   -1.000
 4187.00    0.97458   1.02534   -1.000
 4188.00    0.97581   1.02479   -1.000
 4189.00    0.99490   1.02903   -1.000
 4190.00    1.00029   1.03464   -1.000
 4191.00    1.00610   1.04014   -1.000
 4192.00    1.01786   1.04543   -1.000
 4193.00    1.02448   1.04812   66.641
 4194.00    1.02355   1.04353   69.047
 4195.00    1.00927   1.02993   72.455
 4196.00    0.98336   1.01130   -1.000
 4197.00    0.96263   0.99399   -1.000
 4198.00    0.95574   0.98243   -1.000
 4199.00    0.94728   0.97800   -1.000
 4200.00    0.95507   0.97918   -1.000
 4201.00    0.96899   0.98338   73.286
 4202.00    0.97744   0.99007   72.640
 4203.00    0.97646   1.00022   71.614
 4204.00    0.97647   1.01309   -1.000
 4205.00    0.98667   1.02644   -1.000
 4206.00    1.00115   1.03848   -1.000
 4207.00    1.01588   1.04757   -1.000
 4208.00    1.02889   1.05246   66.512
 4209.00    1.02789   1.05420   66.714
 4210.00    1.02113   1.05567   -1.000
 4211.00    1.02237   1.05777   -1.000
 4212.00    1.02289   1.05690   -1.000
 4213.00    1.02120   1.04850   -1.000
 4214.00    1.00461   1.03407   -1.000
 4215.00    0.97063   1.02227   -1.000
 4216.00    0.96710   1.02194   -1.000
 4217.00    0.99685   1.03425   -1.000
 4218.00    1.03421   1.05186   63.309
 4219.00    1.04793   1.06594   61.836
 4220.00    1.05529   1.07130   61.490
 4221.00    1.05091   1.06513   62.544
 4222.00    1.03387   1.04522   65.617
 4223.00    1.00002   1.01150   70.732
 4224.00    0.96672   0.96981   78.384
 4225.00    0.90347   0.93326   -1.000
 4226.00    0.86062   0.91784   -1.000
 4227.00    0.86863   0.93303   -1.000
 4228.00    0.92224   0.97289   -1.000
 4229.00    0.98783   1.01738   -1.000
 4230.00    1.02860   1.04623   64.088
 4231.00    1.03415   1.05275   64.137
 4232.00    1.02933   1.04375   65.718
 4233.00    1.01356   1.03031   67.207
 4234.00    1.01104   1.02067   68.042
 4235.00    0.99493   1.01758   69.602
 4236.00    0.98686   1.01979   -1.000
 4237.00    0.98363   1.02596   -1.000
 4238.00    0.99379   1.03558   -1.000
 4239.00    1.00154   1.04772   -1.000
 4240.00    1.01314   1.06071   -1.000
 4241.00    1.02509   1.07256   -1.000
 4242.00    1.03582   1.08150   -1.000
 4243.00    1.04186   1.08591   -1.000
 4244.00    1.04711   1.08370   -1.000
 4245.00    1.04926   1.07300   63.774
 4246.00    1.02564   1.05509   66.712
 4247.00    0.99796   1.03587   -1.000
 4248.00    0.98715   1.02195   -1.000
 4249.00    0.98199   1.01650   -1.000
 4250.00    0.97348   1.01937   -1.000
 4251.00    0.98618   1.02758   -1.000
 4252.00    1.00653   1.03579   -1.000
 4253.00    1.00882   1.04056   -1.000
 4254.00    0.99676   1.04381   -1.000
 4255.00    1.00094   1.04897   -1.000
 4256.00    1.02131   1.05421   -1.000
 4257.00    1.03557   1.05277   65.529
 4258.00    1.01787   1.04193   68.444
 4259.00    0.99252   1.02878   -1.000
 4260.00    0.97222   1.02494   -1.000
 4261.00    0.98001   1.03649   -1.000
 4262.00    1.01142   1.05935   -1.000
 4263.00    1.03918   1.08281   -1.000
 4264.00    1.05922   1.09744   -1.000
 4265.00    1.06150   1.10040   -1.000
 4266.00    1.05812   1.09376   -1.000
 4267.00    1.04592   1.07954   -1.000
 4268.00    1.02973   1.05837   66.927
 4269.00    1.00625   1.03171   69.957
 4270.00    0.97265   1.00416   -1.000
 4271.00    0.93633   0.98322   -1.000
 4272.00    0.92491   0.97532   -1.000
 4273.00    0.93490   0.98176   -1.000
 4274.00    0.94209   0.99947   -1.000
 4275.00    0.96479   1.02425   -1.000
 4276.00    1.00216   1.05073   -1.000
 4277.00    1.03610   1.07109   -1.000
 4278.00    1.04013   1.07879   -1.000
 4279.00    1.02231   1.07406   -1.000
 4280.00    0.99894   1.06380   -1.000
 4281.00    0.99503   1.05556   -1.000
 4282.00    1.00446   1.05185   -1.000
 4283.00    1.00680   1.05032   -1.000
 4284.00    1.00142   1.04731   -1.000
 4285.00    0.98749   1.03980   -1.000
 4286.00    0.96773   1.02608   -1.000
 4287.00    0.95423   1.00644   -1.000
 4288.00    0.93373   0.98455   -1.000
 4289.00    0.90649   0.96825   -1.000
 4290.00    0.90544   0.96557   -1.000
 4291.00    0.92948   0.97671   -1.000
 4292.00    0.95882   0.99198   -1.000
 4293.00    0.98026   1.00056   70.016
 4294.00    0.98157   0.99973   70.868
 4295.00    0.97361   0.99242   72.169
 4296.00    0.95866   0.97919   74.310
 4297.00    0.93040   0.95803   78.792
 4298.00    0.89018   0.93031   -1.000
 4299.00    0.84989   0.90286   -1.000
 4300.00    0.83584   0.88411   -1.000
 4301.00    0.83779   0.87830   -1.000
 4302.00    0.84808   0.88367   -1.000
 4303.00    0.86448   0.89460   85.556
 4304.00    0.87665   0.90378   84.869
 4305.00    0.87915   0.90471   85.903
 4306.00    0.86299   0.89655   -1.000
 4307.00    0.84236   0.88595   -1.000
 4308.00    0.82707   0.88236   -1.000
 4309.00    0.82991   0.89067   -1.000
 4310.00    0.84964   0.90799   -1.000
 4311.00    0.87518   0.92753   -1.000
 4312.00    0.90061   0.94594   -1.000
 4313.00    0.91761   0.96684   -1.000
 4314.00    0.94365   0.99618   -1.000
 4315.00    0.99435   1.03423   -1.000
 4316.00    1.04989   1.07263   59.071
 4317.00    1.08453   1.09983   57.589
 4318.00    1.08752   1.10995   57.888
 4319.00    1.07658   1.10521   58.934
 4320.00    1.06497   1.09068   60.451
 4321.00    1.04021   1.06906   62.758
 4322.00    1.01247   1.04065   66.267
 4323.00    0.98030   1.00791   71.510
 4324.00    0.93675   0.98017   -1.000
 4325.00    0.91070   0.97098   -1.000
 4326.00    0.92460   0.98656   -1.000
 4327.00    0.97689   1.01776   -1.000
 4328.00    1.02945   1.04708   61.017
 4329.00    1.04611   1.06305   60.333
 4330.00    1.03902   1.06678   60.510
 4331.00    1.02977   1.06550   59.962
 4332.00    1.02987   1.06282   58.981
 4333.00    1.02964   1.05573   58.517
 4334.00    1.02436   1.03791   58.686
 4335.00    1.00648   1.00344   60.402
 4336.00    0.96072   0.94975   64.911
 4337.00    0.89290   0.88144   71.293
 4338.00    0.81445   0.81261   77.738
 4339.00    0.74744   0.76277   83.050
 4340.00    0.71180   0.74840   -1.000
 4341.00    0.72976   0.77483   -1.000
 4342.00    0.79943   0.83127   -1.000
 4343.00    0.88090   0.89629   65.297
 4344.00    0.93322   0.95258   63.393
 4345.00    0.96623   0.99556   61.839
 4346.00    0.98891   1.02801   -1.000
 4347.00    1.00422   1.05084   -1.000
 4348.00    1.02118   1.06055   59.477
 4349.00    1.03490   1.05399   60.444
 4350.00    1.01551   1.03541   64.264
 4351.00    0.96725   1.01779   -1.000
 4352.00    0.95800   1.01468   -1.000
 4353.00    0.98644   1.02997   -1.000
 4354.00    1.02224   1.05572   62.263
 4355.00    1.04338   1.07979   60.545
 4356.00    1.05508   1.09471   -1.000
 4357.00    1.05856   1.10021   -1.000
 4358.00    1.06528   1.10112   61.271
 4359.00    1.05880   1.10380   -1.000
 4360.00    1.06156   1.11174   -1.000
 4361.00    1.07833   1.12353   -1.000
 4362.00    1.08893   1.13527   -1.000
 4363.00    1.09170   1.14360   -1.000
 4364.00    1.10006   1.14608   -1.000
 4365.00    1.10123   1.14092   -1.000
 4366.00    1.08325   1.12873   -1.000
 4367.00    1.06649   1.11410   -1.000
 4368.00    1.05815   1.10281   -1.000
 4369.00    1.05874   1.09685   -1.000
 4370.00    1.06916   1.09315   60.737
 4371.00    1.07754   1.08651   60.863
 4372.00    1.05964   1.07357   61.962
 4373.00    1.03565   1.05639   64.596
 4374.00    1.00767   1.04348   -1.000
 4375.00    1.00956   1.04453   -1.000
 4376.00    1.03619   1.06127   62.728
 4377.00    1.06876   1.08446   60.058
 4378.00    1.07914   1.10074   59.447
 4379.00    1.08355   1.10138   60.046
 4380.00    1.08642   1.08384   61.584
 4381.00    1.06499   1.05032   65.512
 4382.00    1.00524   1.00983   73.090
 4383.00    0.94718   0.97852   -1.000
 4384.00    0.92196   0.97075   -1.000
 4385.00    0.94904   0.98800   -1.000
 4386.00    0.99995   1.01775   64.690
 4387.00    1.02898   1.04425   63.315
 4388.00    1.04653   1.05986   63.617
 4389.00    1.05306   1.06641   64.222
 4390.00    1.05382   1.06943   64.032
 4391.00    1.05882   1.07206   62.663
 4392.00    1.06823   1.07292   61.696
 4393.00    1.07106   1.07007   62.450
 4394.00    1.05757   1.06692   63.489
 4395.00    1.04748   1.07016   62.469
 4396.00    1.06937   1.08041   59.735
 4397.00    1.09461   1.08943   58.693
 4398.00    1.09053   1.08942   59.986
 4399.00    1.06786   1.08184   62.182
 4400.00    1.04179   1.07441   -1.000
 4401.00    1.04654   1.07090   62.371
 4402.00    1.06661   1.06769   62.035
 4403.00    1.05871   1.06091   64.766
 4404.00    1.03662   1.05328   67.845
 4405.00    1.02396   1.05127   -1.000
 4406.00    1.02948   1.05727   65.399
 4407.00    1.03919   1.06844   64.614
 4408.00    1.03927   1.08247   -1.000
 4409.00    1.05027   1.09973   -1.000
 4410.00    1.08422   1.11806   58.462
 4411.00    1.11072   1.13020   56.832
 4412.00    1.11913   1.12872   56.772
 4413.00    1.10878   1.11257   58.858
 4414.00    1.08116   1.08911   62.062
 4415.00    1.05107   1.07092   63.570
 4416.00    1.04383   1.06827   62.589
 4417.00    1.05735   1.08251   60.197
 4418.00    1.07801   1.10593   57.880
 4419.00    1.10130   1.12692   56.781
 4420.00    1.11252   1.13711   57.509
 4421.00    1.10179   1.13630   -1.000
 4422.00    1.08779   1.13114   -1.000
 4423.00    1.08512   1.12773   -1.000
 4424.00    1.07788   1.12680   -1.000
 4425.00    1.07743   1.12645   -1.000
 4426.00    1.07633   1.12651   -1.000
 4427.00    1.06708   1.12820   -1.000
 4428.00    1.06949   1.13146   -1.000
 4429.00    1.07677   1.13477   -1.000
 4430.00    1.07669   1.13665   -1.000
 4431.00    1.08011   1.13571   -1.000
 4432.00    1.09313   1.13011   -1.000
 4433.00    1.08372   1.11968   -1.000
 4434.00    1.05919   1.10977   -1.000
 4435.00    1.04758   1.10962   -1.000
 4436.00    1.05826   1.12423   -1.000
 4437.00    1.09709   1.14771   -1.000
 4438.00    1.12999   1.16653   -1.000
 4439.00    1.14066   1.16942   55.654
 4440.00    1.12743   1.15481   57.757
 4441.00    1.09651   1.13139   -1.000
 4442.00    1.06649   1.11265   -1.000
 4443.00    1.05162   1.10929   -1.000
 4444.00    1.06932   1.12281   -1.000
 4445.00    1.10183   1.14473   -1.000
 4446.00    1.12055   1.16347   -1.000
 4447.00    1.12477   1.17314   -1.000
 4448.00    1.12950   1.17513   -1.000
 4449.00    1.12524   1.17323   -1.000
 4450.00    1.11905   1.16978   -1.000
 4451.00    1.11576   1.16454   -1.000
 4452.00    1.11729   1.15505   -1.000
 4453.00    1.10546   1.13991   -1.000
 4454.00    1.07637   1.12302   -1.000
 4455.00    1.05676   1.11209   -1.000
 4456.00    1.06363   1.11109   -1.000
 4457.00    1.08416   1.11622   -1.000
 4458.00    1.08990   1.12090   61.903
 4459.00    1.08322   1.12235   -1.000
 4460.00    1.07689   1.12283   -1.000
 4461.00    1.07252   1.12633   -1.000
 4462.00    1.08634   1.13447   -1.000
 4463.00    1.10855   1.14480   -1.000
 4464.00    1.11645   1.15261   -1.000
 4465.00    1.12104   1.15431   58.162
 4466.00    1.11910   1.14926   58.363
 4467.00    1.11016   1.14034   59.183
 4468.00    1.09595   1.13343   -1.000
 4469.00    1.08909   1.13467   -1.000
 4470.00    1.09058   1.14647   -1.000
 4471.00    1.11319   1.16566   -1.000
 4472.00    1.14130   1.18568   -1.000
 4473.00    1.17233   1.20105   53.941
 4474.00    1.18191   1.21018   53.678
 4475.00    1.18376   1.21483   53.660
 4476.00    1.18070   1.21649   -1.000
 4477.00    1.18860   1.21313   53.095
 4478.00    1.18472   1.20071   53.989
 4479.00    1.16844   1.17946   56.197
 4480.00    1.14057   1.15783   58.541
 4481.00    1.11325   1.14782   -1.000
 4482.00    1.11303   1.15590   -1.000
 4483.00    1.13030   1.17809   -1.000
 4484.00    1.16170   1.20297   -1.000
 4485.00    1.18337   1.21906   53.134
 4486.00    1.18781   1.22059   53.561
 4487.00    1.18251   1.20938   55.058
 4488.00    1.16032   1.19365   -1.000
 4489.00    1.13934   1.18331   -1.000
 4490.00    1.13968   1.18327   -1.000
 4491.00    1.15511   1.18975   -1.000
 4492.00    1.16480   1.19425   54.988
 4493.00    1.16587   1.19214   56.123
 4494.00    1.15286   1.18688   -1.000
 4495.00    1.13188   1.18515   -1.000
 4496.00    1.13109   1.18969   -1.000
 4497.00    1.15076   1.19738   -1.000
 4498.00    1.17448   1.20250   54.163
 4499.00    1.17829   1.20197   53.967
 4500.00    1.16148   1.19904   -1.000
 4501.00    1.14654   1.20128   -1.000
 4502.00    1.16502   1.21301   -1.000
 4503.00    1.20054   1.23052   51.180
 4504.00    1.22412   1.24529   50.641
 4505.00    1.22511   1.25115   51.225
 4506.00    1.21535   1.24831   52.177
 4507.00    1.20897   1.24207   52.537
 4508.00    1.20538   1.23829   52.440
 4509.00    1.20594   1.23879   52.024
 4510.00    1.21604   1.24059   51.869
 4511.00    1.22064   1.23940   52.503
 4512.00    1.20591   1.23379   53.552
 4513.00    1.18941   1.22581   54.343
 4514.00    1.18156   1.21861   54.493
 4515.00    1.17902   1.21402   54.251
 4516.00    1.17742   1.21155   54.404
 4517.00    1.17501   1.20964   55.019
 4518.00    1.17431   1.20802   54.994
 4519.00    1.17658   1.20774   53.956
 4520.00    1.18857   1.20842   53.197
 4521.00    1.19109   1.20733   53.702
 4522.00    1.17476   1.20252   54.991
 4523.00    1.16043   1.19515   55.930
 4524.00    1.15177   1.18714   56.493
 4525.00    1.14992   1.17794   57.668
 4526.00    1.13608   1.16594   59.448
 4527.00    1.11778   1.15223   -1.000
 4528.00    1.09838   1.14144   -1.000
 4529.00    1.10346   1.13802   -1.000
 4530.00    1.11440   1.14140   59.474
 4531.00    1.12632   1.14536   58.591
 4532.00    1.12497   1.14351   58.830
 4533.00    1.11327   1.13651   60.675
 4534.00    1.09828   1.13288   -1.000
 4535.00    1.09655   1.14152   -1.000
 4536.00    1.12718   1.16335   -1.000
 4537.00    1.16987   1.19020   53.857
 4538.00    1.20045   1.21111   52.994
 4539.00    1.20221   1.22017   53.798
 4540.00    1.18993   1.21952   54.791
 4541.00    1.18896   1.21570   54.575
 4542.00    1.18884   1.21331   54.211
 4543.00    1.18260   1.21213   58.644
 4544.00    1.17441   1.20995   -2.000
 4545.00    1.15538   1.20589   -2.000
 4546.00    0.82670   1.19968   -2.000
 4547.00    0.07520   1.18996   -1.000
 4548.00   -0.00143   1.17731    0.000
 4549.00    0.30872   1.16745   -1.000
 4550.00    0.74392   1.16665   -1.000
 4551.00    0.40808   1.17320   -1.000
 4552.00    1.01977   1.17805   -1.000
 4553.00    1.16547   1.17575   57.764
 4554.00    1.12372   1.17107   -1.000
 4555.00    1.12656   1.17347   -1.000
 4556.00    1.15064   1.18725   54.463
 4557.00    1.18398   1.20791   52.580
 4558.00    1.20840   1.22744   52.025
 4559.00    1.20913   1.24098   52.287
 4560.00    1.21435   1.24716   52.251
 4561.00    1.21656   1.24500   52.579
 4562.00    1.20223   1.23486   53.888
 4563.00    1.18259   1.22173   55.130
 4564.00    1.16658   1.21367   -1.000
 4565.00    1.17051   1.21586   -1.000
 4566.00    1.18896   1.22659   53.313
 4567.00    1.21320   1.23883   52.126
 4568.00    1.22436   1.24505   51.924
 4569.00    1.21513   1.24144   52.738
 4570.00    1.19692   1.23023   54.129
 4571.00    1.17563   1.21912   -1.000
 4572.00    1.17075   1.21652   -1.000
 4573.00    1.19255   1.22414   52.794
 4574.00    1.21146   1.23522   52.283
 4575.00    1.21487   1.24186   52.403
 4576.00    1.21064   1.24155   52.670
 4577.00    1.20822   1.23557   53.131
 4578.00    1.19624   1.22520   54.245
 4579.00    1.17278   1.21193   55.781
 4580.00    1.16280   1.19905   56.570
 4581.00    1.16396   1.18982   56.186
 4582.00    1.16302   1.18522   55.462
 4583.00    1.16193   1.18490   55.219
 4584.00    1.17012   1.18868   55.457
 4585.00    1.17486   1.19594   55.524
 4586.00    1.18154   1.20527   54.522
 4587.00    1.19526   1.21483   53.130
 4588.00    1.20251   1.22242   52.285
 4589.00    1.20996   1.22619   52.470
 4590.00    1.20158   1.22574   53.333
 4591.00    1.19087   1.22233   54.324
 4592.00    1.18705   1.21852   55.042
 4593.00    1.18394   1.21700   54.917
 4594.00    1.18774   1.21877   54.436
 4595.00    1.19310   1.22289   54.083
 4596.00    1.20203   1.22766   53.959
 4597.00    1.21149   1.23115   53.845
 4598.00    1.21759   1.23181   53.877
 4599.00    1.21372   1.22942   54.383
 4600.00    1.19539   1.22542   54.785
 4601.00    1.18695   1.22221   54.731
 4602.00    1.18845   1.22145   54.108
 4603.00    1.20172   1.22318   53.679
 4604.00    1.20717   1.22660   53.754
 4605.00    1.21201   1.23153   53.525
 4606.00    1.21861   1.23860   52.795
 4607.00    1.22843   1.24795   51.706
 4608.00    1.24205   1.25786   50.724
 4609.00    1.24710   1.26504   50.361
 4610.00    1.24355   1.26689   50.744
 4611.00    1.24212   1.26390   51.431
 4612.00    1.23021   1.25927   51.934
 4613.00    1.22550   1.25619   52.106
 4614.00    1.22859   1.25544   51.767
 4615.00    1.23026   1.25552   51.362
 4616.00    1.22670   1.25475   51.311
 4617.00    1.22959   1.25298   51.690
 4618.00    1.22431   1.25154   51.963
 4619.00    1.22297   1.25235   51.776
 4620.00    1.23387   1.25648   51.174
 4621.00    1.24016   1.26275   50.552
 4622.00    1.25548   1.26804   50.611
 4623.00    1.25629   1.26978   50.737
 4624.00    1.24458   1.26785   50.931
 4625.00    1.23470   1.26406   51.329
 4626.00    1.23778   1.26017   51.397
 4627.00    1.23835   1.25692   51.458
 4628.00    1.23637   1.25473   51.750
 4629.00    1.23095   1.25465   51.753
 4630.00    1.22892   1.25725   51.387
 4631.00    1.23219   1.26077   50.990
 4632.00    1.23786   1.26205   51.392
 4633.00    1.22986   1.25971   52.122
 4634.00    1.22571   1.25546   52.525
 4635.00    1.22621   1.25171   52.572
 4636.00    1.22670   1.24900   53.094
 4637.00    1.21421   1.24687   53.685
 4638.00    1.20922   1.24590   53.805
 4639.00    1.21759   1.24773   53.494
 4640.00    1.23275   1.25306   52.439
 4641.00    1.24843   1.26007   51.283
 4642.00    1.25453   1.26507   50.844
 4643.00    1.25434   1.26471   51.285
 4644.00    1.23784   1.25776   52.405
 4645.00    1.22298   1.24587   53.904
 4646.00    1.20799   1.23362   55.066
 4647.00    1.20094   1.22700   54.920
 4648.00    1.21199   1.22952   53.809
 4649.00    1.21736   1.23945   52.673
 4650.00    1.23061   1.25135   52.140
 4651.00    1.23750   1.25982   52.073
 4652.00    1.22908   1.26205   52.153
 4653.00    1.22843   1.25829   52.964
 4654.00    1.22292   1.25157   54.064
 4655.00    1.20837   1.24666   54.368
 4656.00    1.20450   1.24814   -1.000
 4657.00    1.22122   1.25825   51.655
 4658.00    1.24783   1.27471   49.876
 4659.00    1.27158   1.29077   49.074
 4660.00    1.27881   1.29919   49.245
 4661.00    1.27050   1.29727   50.044
 4662.00    1.25286   1.28766   51.243
 4663.00    1.24284   1.27437   52.007
 4664.00    1.24006   1.25905   52.277
 4665.00    1.23402   1.24132   53.533
 4666.00    1.21298   1.22259   55.895
 4667.00    1.18356   1.20822   57.622
 4668.00    1.17607   1.20441   57.081
 4669.00    1.18140   1.21258   55.073
 4670.00    1.20922   1.22805   52.955
 4671.00    1.23391   1.24386   51.855
 4672.00    1.24976   1.25539   51.689
 4673.00    1.24574   1.26255   51.719
 4674.00    1.24679   1.26792   51.495
 4675.00    1.25170   1.27270   50.766
 4676.00    1.26636   1.27495   50.264
 4677.00    1.26425   1.27187   50.786
 4678.00    1.25049   1.26337   51.908
 4679.00    1.23124   1.25258   52.885
 4680.00    1.21815   1.24365   53.656
 4681.00    1.21665   1.23970   53.841
 4682.00    1.22440   1.24167   52.928
 4683.00    1.23583   1.24771   51.730
 4684.00    1.25603   1.25432   51.308
 4685.00    1.26479   1.25875   51.482
 4686.00    1.26130   1.26047   51.566
 4687.00    1.24942   1.26050   51.798
 4688.00    1.25099   1.25995   51.786
 4689.00    1.25272   1.25915   51.889
 4690.00    1.24764   1.25811   52.212
 4691.00    1.24379   1.25776   52.112
 4692.00    1.25338   1.25959   51.416
 4693.00    1.26654   1.26382   50.540
 4694.00    1.28128   1.26876   49.523
 4695.00    1.28303   1.27166   49.146
 4696.00    1.28337   1.26988   49.737
 4697.00    1.27298   1.26248   51.253
 4698.00    1.25217   1.25157   52.556
 4699.00    1.24310   1.24085   52.845
 4700.00    1.24024   1.23231   52.588
 4701.00    1.23566   1.22583   53.166
 4702.00    1.22686   1.22176   53.960
 4703.00    1.22373   1.22172   53.856
 4704.00    1.23126   1.22589   52.833
 4705.00    1.23624   1.23081   52.465
 4706.00    1.23478   1.23204   53.357
 4707.00    1.22353   1.22892   54.298
 4708.00    1.21340   1.22573   54.579
 4709.00    1.21483   1.22748   53.895
 4710.00    1.23044   1.23487   52.275
 4711.00    1.25655   1.24367   51.093
 4712.00    1.26563   1.24874   50.892
 4713.00    1.25553   1.24888   51.554
 4714.00    1.24820   1.24792   52.296
 4715.00    1.25157   1.25086   51.968
 4716.00    1.25667   1.25924   50.896
 4717.00    1.26893   1.27032   50.097
 4718.00    1.28055   1.28024   49.854
 4719.00    1.28511   1.28678   49.684
 4720.00    1.27841   1.28966   49.672
 4721.00    1.26649   1.28986   50.107
 4722.00    1.26397   1.28942   50.284
 4723.00    1.26747   1.29007   49.891
 4724.00    1.26639   1.29096   49.502
 4725.00    1.27419   1.28872   49.905
 4726.00    1.26658   1.28059   51.356
 4727.00    1.24318   1.26745   53.140
 4728.00    1.23177   1.25368   53.918
 4729.00    1.22684   1.24397   53.559
 4730.00    1.23366   1.24055   53.031
 4731.00    1.24215   1.24331   52.560
 4732.00    1.24650   1.25041   51.962
 4733.00    1.24840   1.25841   51.562
 4734.00    1.25422   1.26380   51.277
 4735.00    1.25950   1.26535   51.214
 4736.00    1.25426   1.26487   51.678
 4737.00    1.25288   1.26520   51.519
 4738.00    1.27000   1.26750   51.001
 4739.00    1.27413   1.27063   51.132
 4740.00    1.25819   1.27315   51.381
 4741.00    1.25202   1.27519   51.307
 4742.00    1.26049   1.27783   50.832
 4743.00    1.26759   1.28149   50.446
 4744.00    1.27356   1.28575   50.565
 4745.00    1.27881   1.29038   50.491
 4746.00    1.28053   1.29554   50.057
 4747.00    1.27847   1.30119   49.651
 4748.00    1.28102   1.30651   49.615
 4749.00    1.27886   1.31047   49.687
 4750.00    1.28469   1.31236   49.806
 4751.00    1.28861   1.31163   50.240
 4752.00    1.27646   1.30805   50.781
 4753.00    1.26981   1.30253   51.179
 4754.00    1.26764   1.29721   51.408
 4755.00    1.25947   1.29427   51.374
 4756.00    1.25613   1.29455   51.638
 4757.00    1.26026   1.29708   51.943
 4758.00    1.26135   1.29972   51.852
 4759.00    1.26353   1.29998   51.488
 4760.00    1.26084   1.29565   51.651
 4761.00    1.24671   1.28599   52.632
 4762.00    1.23193   1.27300   -1.000
 4763.00    1.22374   1.26100   54.303
 4764.00    1.22047   1.25396   54.304
 4765.00    1.22435   1.25364   54.110
 4766.00    1.23797   1.25964   53.617
 4767.00    1.24871   1.27044   52.726
 4768.00    1.25984   1.28349   51.632
 4769.00    1.26693   1.29496   51.153
 4770.00    1.26970   1.30136   51.369
 4771.00    1.26750   1.30260   51.826
 4772.00    1.25990   1.30246   -1.000
 4773.00    1.26831   1.30504   51.208
 4774.00    1.28043   1.31085   50.289
 4775.00    1.28544   1.31700   50.083
 4776.00    1.29048   1.32048   50.168
 4777.00    1.28907   1.32014   50.369
 4778.00    1.27802   1.31636   50.771
 4779.00    1.26420   1.31081   -1.000
 4780.00    1.25949   1.30584   -1.000
 4781.00    1.25554   1.30256   -1.000
 4782.00    1.25602   1.30004   -1.000
 4783.00    1.25985   1.29703   -1.000
 4784.00    1.25759   1.29347   52.303
 4785.00    1.25605   1.28977   52.582
 4786.00    1.25291   1.28642   53.064
 4787.00    1.24449   1.28441   -1.000
 4788.00    1.24381   1.28473   -1.000
 4789.00    1.24439   1.28782   -1.000
 4790.00    1.25144   1.29390   -1.000
 4791.00    1.25992   1.30324   -1.000
 4792.00    1.27532   1.31541   50.864
 4793.00    1.29058   1.32857   49.787
 4794.00    1.30313   1.33948   49.126
 4795.00    1.31082   1.34457   49.157
 4796.00    1.30702   1.34200   49.816
 4797.00    1.29054   1.33321   50.827
 4798.00    1.28347   1.32286   51.683
 4799.00    1.26755   1.31666   -1.000
 4800.00    1.27038   1.31781   -1.000
 4801.00    1.28435   1.32461   50.341
 4802.00    1.29706   1.33124   49.847
 4803.00    1.29863   1.33186   50.116
 4804.00    1.28673   1.32546   50.807
 4805.00    1.27340   1.31652   -1.000
 4806.00    1.27010   1.31047   51.734
 4807.00    1.27797   1.30947   51.668
 4808.00    1.28054   1.31239   51.506
 4809.00    1.27681   1.31682   51.205
 4810.00    1.28295   1.32087   50.756
 4811.00    1.28691   1.32413   50.425
 4812.00    1.28715   1.32739   50.228
 4813.00    1.29398   1.33143   50.168
 4814.00    1.29204   1.33620   -1.000
 4815.00    1.29331   1.34117   -1.000
 4816.00    1.30319   1.34587   49.487
 4817.00    1.30716   1.34973   49.210
 4818.00    1.31441   1.35194   49.064
 4819.00    1.31840   1.35158   49.059
 4820.00    1.31102   1.34756   49.178
 4821.00    1.29945   1.33872   49.863
 4822.00    1.28469   1.32561   51.126
 4823.00    1.27135   1.31233   -1.000
 4824.00    1.27031   1.30463   51.424
 4825.00    1.27559   1.30516   50.511
 4826.00    1.29170   1.31087   50.003
 4827.00    1.29306   1.31596   50.358
 4828.00    1.28451   1.31704   50.895
 4829.00    1.28662   1.31463   51.109
 4830.00    1.28410   1.31087   51.214
 4831.00    1.27336   1.30744   51.606
 4832.00    1.27416   1.30570   51.425
 4833.00    1.28253   1.30662   50.601
 4834.00    1.29741   1.30966   50.067
 4835.00    1.30000   1.31283   49.975
 4836.00    1.28949   1.31422   50.110
 4837.00    1.29259   1.31308   50.477
 4838.00    1.28324   1.30960   51.247
 4839.00    1.27183   1.30486   51.935
 4840.00    1.26244   1.30061   51.889
 4841.00    1.26554   1.29807   51.733
 4842.00    1.26625   1.29719   51.432
 4843.00    1.27311   1.29758   51.007
 4844.00    1.28104   1.29923   50.411
 4845.00    1.28604   1.30124   49.751
 4846.00    1.28632   1.30113   49.857
 4847.00    1.27529   1.29711   50.853
 4848.00    1.26492   1.29082   51.393
 4849.00    1.26116   1.28585   51.160
 4850.00    1.26584   1.28343   50.576
 4851.00    1.26795   1.28082   50.593
 4852.00    1.25739   1.27363   50.937
 4853.00    1.23666   1.25898   51.667
 4854.00    1.21406   1.23778   53.241
 4855.00    1.19133   1.21420   54.307
 4856.00    1.17915   1.19091   54.002
 4857.00    1.17558   1.16306   53.977
 4858.00    1.14301   1.11959   56.357
 4859.00    1.05568   1.05531   61.824
 4860.00    0.94930   0.98413   -1.000
 4861.00    0.88241   0.93675   -1.000
 4862.00    0.90709   0.93815   64.055
 4863.00    0.99969   0.98647   58.831
 4864.00    1.08251   1.05631   55.805
 4865.00    1.13725   1.12143   54.093
 4866.00    1.17441   1.17024   53.152
 4867.00    1.19995   1.20280   52.759
 4868.00    1.21271   1.22125   52.726
 4869.00    1.21073   1.22632   53.486
 4870.00    1.20107   1.22072   54.988
 4871.00    1.18260   1.21239   55.833
 4872.00    1.18099   1.21124   54.982
 4873.00    1.20277   1.22152   53.540
 4874.00    1.22058   1.23879   52.773
 4875.00    1.23059   1.25537   52.414
 4876.00    1.23436   1.26763   52.162
 4877.00    1.23543   1.27739   51.830
 4878.00    1.23886   1.28763   51.107
 4879.00    1.25299   1.29824   50.840
 4880.00    1.26032   1.30577   51.433
 4881.00    1.24945   1.30705   -1.000
 4882.00    1.24416   1.30269   -1.000
 4883.00    1.24533   1.29623   -1.000
 4884.00    1.24392   1.29067   -1.000
 4885.00    1.23892   1.28693   -1.000
 4886.00    1.23803   1.28464   -1.000
 4887.00    1.24273   1.28245   53.238
 4888.00    1.24036   1.27794   53.404
 4889.00    1.23953   1.26973   54.334
 4890.00    1.22053   1.26120   55.132
 4891.00    1.21828   1.26061   54.199
 4892.00    1.24216   1.27462   51.866
 4893.00    1.27791   1.30141   49.680
 4894.00    1.31524   1.33174   48.386
 4895.00    1.33439   1.35615   47.677
 4896.00    1.34694   1.37009   47.558
 4897.00    1.33770   1.37355   47.920
 4898.00    1.32358   1.36882   49.020
 4899.00    1.30448   1.35949   -1.000
 4900.00    1.29838   1.34981   -1.000
 4901.00    1.29988   1.34258   50.151
 4902.00    1.30009   1.33831   50.381
 4903.00    1.29077   1.33734   50.704
 4904.00    1.29079   1.34112   49.967
 4905.00    1.30709   1.34925   49.062
 4906.00    1.32302   1.35693   48.926
 4907.00    1.32322   1.35798   49.601
 4908.00    1.30805   1.35028   50.891
 4909.00    1.29152   1.33738   52.155
 4910.00    1.27692   1.32590   52.424
 4911.00    1.28000   1.32153   51.622
 4912.00    1.29054   1.32591   50.740
 4913.00    1.29987   1.33618   50.060
 4914.00    1.31208   1.34698   49.465
 4915.00    1.31875   1.35224   49.215
 4916.00    1.32009   1.34625   49.864
 4917.00    1.29716   1.32599   51.921
 4918.00    1.26237   1.29469   54.716
 4919.00    1.22124   1.26253   56.790
 4920.00    1.20438   1.24157   56.695
 4921.00    1.22060   1.23775   54.720
 4922.00    1.24720   1.24728   53.045
 4923.00    1.25997   1.26212   52.489
 4924.00    1.26068   1.27805   52.289
 4925.00    1.27136   1.29602   51.410
 4926.00    1.28964   1.31681   50.159
 4927.00    1.30884   1.33792   49.390
 4928.00    1.32626   1.35566   48.971
 4929.00    1.33734   1.36721   48.649
 4930.00    1.34529   1.37032   48.565
 4931.00    1.33814   1.36331   49.293
 4932.00    1.31283   1.34748   50.787
 4933.00    1.27898   1.32897   52.190
 4934.00    1.26880   1.31580   51.979
 4935.00    1.28185   1.31079   51.257
 4936.00    1.28651   1.30878   51.660
 4937.00    1.27324   1.30370   53.208
 4938.00    1.25502   1.29696   54.151
 4939.00    1.25186   1.29653   53.246
 4940.00    1.27112   1.30802   51.420
 4941.00    1.30267   1.32880   49.963
 4942.00    1.32467   1.35053   49.185
 4943.00    1.33543   1.36581   48.878
 4944.00    1.33483   1.37243   49.011
 4945.00    1.32955   1.37313   49.305
 4946.00    1.32141   1.37284   49.254
 4947.00    1.32343   1.37518   48.756
 4948.00    1.33652   1.38039   48.290
 4949.00    1.34041   1.38594   48.140
 4950.00    1.34561   1.38917   48.058
 4951.00    1.34731   1.38896   48.344
 4952.00    1.34154   1.38529   48.740
 4953.00    1.33852   1.37728   49.324
 4954.00    1.33077   1.36202   50.129
 4955.00    1.31346   1.33693   51.822
 4956.00    1.27878   1.30565   54.391
 4957.00    1.23682   1.28060   -1.000
 4958.00    1.23576   1.27551   -1.000
 4959.00    1.27452   1.29307   51.076
 4960.00    1.31023   1.32221   49.717
 4961.00    1.33305   1.34804   49.532
 4962.00    1.33516   1.36214   49.824
 4963.00    1.32676   1.36399   50.278
 4964.00    1.32308   1.35705   51.008
 4965.00    1.31222   1.34599   51.994
 4966.00    1.30175   1.33572   52.479
 4967.00    1.29622   1.32982   52.430
 4968.00    1.29619   1.32938   52.208
 4969.00    1.29892   1.33378   51.768
 4970.00    1.30512   1.34175   51.209
 4971.00    1.31042   1.35156   50.642
 4972.00    1.32435   1.36102   50.069
 4973.00    1.33139   1.36805   49.673
 4974.00    1.33727   1.37122   49.626
 4975.00    1.33801   1.37000   50.034
 4976.00    1.32501   1.36471   50.608
 4977.00    1.32034   1.35648   51.338
 4978.00    1.31288   1.34651   52.126
 4979.00    1.29941   1.33453   52.789
 4980.00    1.27534   1.31867   53.806
 4981.00    1.25084   1.29858   -1.000
 4982.00    1.22937   1.27852   -1.000
 4983.00    1.21986   1.26615   -1.000
 4984.00    1.23382   1.26717   55.346
 4985.00    1.25547   1.28124   53.720
 4986.00    1.27815   1.30259   52.111
 4987.00    1.29834   1.32311   51.191
 4988.00    1.30639   1.33591   51.459
 4989.00    1.30002   1.33848   52.175
 4990.00    1.28952   1.33411   52.567
 4991.00    1.29411   1.32905   52.443
 4992.00    1.29474   1.32783   52.030
 4993.00    1.29509   1.33112   51.869
 4994.00    1.30147   1.33716   51.783
 4995.00    1.30869   1.34351   51.512
 4996.00    1.31519   1.34698   51.411
 4997.00    1.31658   1.34374   51.839
 4998.00    1.30674   1.33189   52.640
 4999.00    1.28111   1.31466   53.607
 5000.00    1.27014   1.29957   54.096
 5001.00    1.27993   1.29247   53.968
 5002.00    1.28566   1.29237   53.485
 5003.00    1.28186   1.29287   53.439
 5004.00    1.27629   1.28848   54.396
 5005.00    1.26147   1.28008   55.509
 5006.00    1.25005   1.27448   55.329
 5007.00    1.26635   1.27808   53.841
 5008.00    1.29304   1.29003   52.483
 5009.00    1.31160   1.30214   52.285
 5010.00    1.30592   1.30554   53.239
 5011.00    1.28101   1.29735   54.973
 5012.00    1.25483   1.28202   56.841
 5013.00    1.23762   1.26763   57.710
 5014.00    1.22668   1.26044   57.115
 5015.00    1.24413   1.26091   55.845
 5016.00    1.26359   1.26440   54.933
 5017.00    1.26949   1.26680   54.790
 5018.00    1.26785   1.26902   54.631
 5019.00    1.27054   1.27465   54.042
 5020.00    1.28014   1.28425   53.790
 5021.00    1.28658   1.29472   54.013
 5022.00    1.28720   1.30382   54.011
 5023.00    1.29114   1.31232   53.618
 5024.00    1.29839   1.32098   53.101
 5025.00    1.30417   1.32804   52.917
 5026.00    1.30134   1.33130   53.185
 5027.00    1.29502   1.33150   53.235
 5028.00    1.30162   1.33191   52.585
 5029.00    1.31652   1.33535   51.647
 5030.00    1.32791   1.34245   50.888
 5031.00    1.33381   1.35172   50.124
 5032.00    1.33951   1.35974   49.733
 5033.00    1.33943   1.36199   50.240
 5034.00    1.32215   1.35573   52.000
 5035.00    1.29904   1.34308   53.755
 5036.00    1.27757   1.32914   -1.000
 5037.00    1.27352   1.31634   54.730
 5038.00    1.26782   1.30197   55.818
 5039.00    1.24132   1.28331   58.082
 5040.00    1.21027   1.26472   -1.000
 5041.00    1.19885   1.25686   -1.000
 5042.00    1.23099   1.26761   55.788
 5043.00    1.27561   1.29476   52.649
 5044.00    1.30920   1.32779   50.821
 5045.00    1.33690   1.35499   49.524
 5046.00    1.36588   1.36888   48.529
 5047.00    1.23824   1.36743   -1.000
 5048.00    0.53601   1.35370   -1.000
 5049.00   -0.00810   1.33456    0.000
 5050.00    0.09705   1.31813   -1.000
 5051.00    0.57890   1.31107   -1.000
 5052.00    1.20335   1.31638   -1.000
 5053.00    1.33490   1.33189   50.856
 5054.00    1.35141   1.35106   50.062
 5055.00    1.36296   1.36720   49.685
 5056.00    1.36216   1.37752   49.602
 5057.00    1.35901   1.38345   49.701
 5058.00    1.35890   1.38769   49.762
 5059.00    1.35938   1.39168   49.649
 5060.00    1.36274   1.39485   49.404
 5061.00    1.36330   1.39474   49.618
 5062.00    1.35999   1.38826   50.520
 5063.00    1.34221   1.37453   52.111
 5064.00    1.31436   1.35723   53.636
 5065.00    1.29547   1.34273   53.860
 5066.00    1.29802   1.33527   53.125
 5067.00    1.31272   1.33441   52.492
 5068.00    1.31419   1.33715   52.320
 5069.00    1.31840   1.34078   52.041
 5070.00    1.33027   1.34348   51.908
 5071.00    1.33169   1.34411   52.349
 5072.00    1.32031   1.34297   52.464
 5073.00    1.32638   1.34171   51.852
 5074.00    1.33258   1.34161   51.548
 5075.00    1.33110   1.34180   51.497
 5076.00    1.33316   1.33927   51.608
 5077.00    1.32873   1.33075   52.485
 5078.00    1.30277   1.31619   54.547
 5079.00    1.26400   1.30061   56.628
 5080.00    1.24746   1.29103   56.695
 5081.00    1.26204   1.29092   55.441
 5082.00    1.27806   1.29856   54.381
 5083.00    1.28901   1.31039   53.578
 5084.00    1.30793   1.32389   52.581
 5085.00    1.33365   1.33713   51.831
 5086.00    1.34611   1.34805   51.561
 5087.00    1.34418   1.35559   51.445
 5088.00    1.34386   1.36075   51.147
 5089.00    1.34859   1.36540   50.799
 5090.00    1.35255   1.37078   50.526
 5091.00    1.35790   1.37701   50.173
 5092.00    1.36881   1.38313   49.619
 5093.00    1.37080   1.38692   49.429
 5094.00    1.36882   1.38533   50.072
 5095.00    1.38819   1.37638   51.151
 5096.00    1.37411   1.36104   52.296
 5097.00    1.32060   1.34345   53.522
 5098.00    1.30281   1.32969   54.371
 5099.00    1.29820   1.32500   54.080
 5100.00    1.31089   1.33060   52.634
 5101.00    1.33477   1.34245   51.401
 5102.00    1.34536   1.35383   51.197
 5103.00    1.34925   1.35960   51.627
 5104.00    1.33805   1.35827   52.314
 5105.00    1.32665   1.35078   52.970
 5106.00    1.31225   1.33960   53.622
 5107.00    1.29868   1.32837   54.083
 5108.00    1.28836   1.32102   53.900
 5109.00    1.29311   1.32015   53.534
 5110.00    1.29779   1.32629   53.037
 5111.00    1.30752   1.33780   52.293
 5112.00    1.32436   1.35170   51.657
 5113.00    1.34283   1.36484   51.074
 5114.00    1.35363   1.37552   50.672
 5115.00    1.35603   1.38388   50.331
 5116.00    1.36626   1.39060   49.821
 5117.00    1.37182   1.39520   49.568
 5118.00    1.37634   1.39595   49.876
 5119.00    1.37058   1.39132   50.576
 5120.00    1.35624   1.38110   51.362
 5121.00    1.34403   1.36647   52.347
 5122.00    1.32043   1.34984   53.781
 5123.00    1.29800   1.33463   55.061
 5124.00    1.28811   1.32414   55.149
 5125.00    1.28688   1.31938   54.692
 5126.00    1.29794   1.31848   54.416
 5127.00    1.30274   1.31881   54.204
 5128.00    1.29994   1.31961   54.260
 5129.00    1.30028   1.32240   54.016
 5130.00    1.30529   1.32865   53.225
 5131.00    1.31936   1.33785   52.445
 5132.00    1.33435   1.34790   52.014
 5133.00    1.34218   1.35660   51.526
 5134.00    1.34424   1.36224   51.165
 5135.00    1.34887   1.36317   51.343
 5136.00    1.34475   1.35796   52.401
 5137.00    1.32542   1.34741   53.567
 5138.00    1.30466   1.33547   54.182
 5139.00    1.29349   1.32706   54.066
 5140.00    1.29819   1.32421   53.813
 5141.00    1.29920   1.32531   54.384
 5142.00    1.28869   1.32806   54.943
 5143.00    1.28771   1.33176   54.401
 5144.00    1.30501   1.33583   53.672
 5145.00    1.31656   1.33876   53.710
 5146.00    1.31205   1.33952   54.133
 5147.00    1.31291   1.33888   54.020
 5148.00    1.32109   1.33794   53.430
 5149.00    1.31532   1.33602   53.418
 5150.00    1.30421   1.33159   54.208
 5151.00    1.29161   1.32529   55.031
 5152.00    1.28516   1.32024   55.184
 5153.00    1.29605   1.32011   54.653
 5154.00    1.31375   1.32703   53.478
 5155.00    1.33204   1.34058   52.105
 5156.00    1.35968   1.35760   50.882
 5157.00    1.37371   1.37362   50.109
 5158.00    1.37811   1.38482   49.865
 5159.00    1.38564   1.38969   49.921
 5160.00    1.37753   1.38863   50.129
 5161.00    1.36793   1.38266   50.502
 5162.00    1.36551   1.37172   51.145
 5163.00    1.35592   1.35309   52.275
 5164.00    1.33423   1.32178   54.961
 5165.00    1.28133   1.27527   59.947
 5166.00    1.20437   1.22096   65.670
 5167.00    1.13826   1.17559   -1.000
 5168.00    1.12788   1.15389   65.936
 5169.00    1.17317   1.15491   62.891
 5170.00    1.21126   1.16288   63.518
 5171.00    1.18188   1.16502   67.901
 5172.00    1.13184   1.16567   -1.000
 5173.00    1.14349   1.18024   -1.000
 5174.00    1.21259   1.21647   58.901
 5175.00    1.28436   1.26508   54.885
 5176.00    1.33526   1.30909   53.336
 5177.00    1.36050   1.33749   52.923
 5178.00    1.36275   1.34842   53.016
 5179.00    1.35531   1.34303   53.947
 5180.00    1.33642   1.32012   56.456
 5181.00    1.28979   1.27999   61.316
 5182.00    1.20940   1.23180   67.950
 5183.00    1.13532   1.19508   -1.000
 5184.00    1.13403   1.18852   -1.000
 5185.00    1.20859   1.21454   58.563
 5186.00    1.29545   1.25764   54.524
 5187.00    1.33856   1.29712   53.287
 5188.00    1.34093   1.32117   52.936
 5189.00    1.33807   1.32896   52.954
 5190.00    1.33590   1.32453   53.878
 5191.00    1.30510   1.31327   55.581
 5192.00    1.27573   1.30228   56.533
 5193.00    1.27053   1.29767   55.859
 5194.00    1.28604   1.30128   54.915
 5195.00    1.31076   1.31076   54.113
 5196.00    1.32654   1.32293   53.234
 5197.00    1.33264   1.33621   52.197
 5198.00    1.34701   1.34952   51.453
 5199.00    1.36635   1.36055   51.160
 5200.00    1.36890   1.36603   51.260
 5201.00    1.36437   1.36309   51.845
 5202.00    1.34760   1.35031   52.881
 5203.00    1.32833   1.32888   54.235
 5204.00    1.30438   1.30352   55.957
 5205.00    1.28113   1.28080   57.233
 5206.00    1.27582   1.26572   57.401
 5207.00    1.27516   1.25962   57.727
 5208.00    1.26782   1.26221   57.725
 5209.00    1.27871   1.27417   56.515
 5210.00    1.30497   1.29576   54.496
 5211.00    1.34238   1.32364   52.302
 5212.00    1.37547   1.34984   50.545
 5213.00    1.39047   1.36589   50.008
 5214.00    1.38465   1.36872   50.819
 5215.00    1.36180   1.36287   51.882
 5216.00    1.34291   1.35761   52.171
 5217.00    1.34966   1.36043   51.482
 5218.00    1.37430   1.37235   50.437
 5219.00    1.39215   1.38837   49.800
 5220.00    1.40192   1.40169   49.488
 5221.00    1.40757   1.40700   49.542
 5222.00    1.40460   1.40116   50.477
 5223.00    1.38714   1.38261   52.221
 5224.00    1.34850   1.35276   54.493
 5225.00    1.30232   1.31854   56.763
 5226.00    1.26907   1.29272   57.450
 5227.00    1.26754   1.28706   55.494
 5228.00    1.31189   1.30357   52.567
 5229.00    1.36066   1.33168   50.819
 5230.00    1.38303   1.35543   50.211
 5231.00    1.39060   1.36445   50.490
 5232.00    1.37636   1.35992   51.532
 5233.00    1.36066   1.35205   52.137
 5234.00    1.34519   1.35142   51.647
 5235.00    1.36079   1.36210   50.398
 5236.00    1.39490   1.38014   49.383
 5237.00    1.41112   1.39791   49.009
 5238.00    1.41121   1.41001   49.048
 5239.00    1.40540   1.41555   49.140
 5240.00    1.41243   1.41677   48.980
 5241.00    1.41543   1.41651   48.788
 5242.00    1.41101   1.41663   48.830
 5243.00    1.41681   1.41712   48.726
 5244.00    1.41737   1.41572   48.961
 5245.00    1.40642   1.40945   50.163
 5246.00    1.37917   1.39790   51.647
 5247.00    1.35347   1.38434   52.509
 5248.00    1.35423   1.37296   52.579
 5249.00    1.35412   1.36608   52.749
 5250.00    1.34223   1.36396   52.925
 5251.00    1.34717   1.36571   52.497
 5252.00    1.36381   1.36974   51.808
 5253.00    1.36917   1.37430   51.462
 5254.00    1.36364   1.37915   51.382
 5255.00    1.37188   1.38663   50.739
 5256.00    1.39000   1.39852   49.455
 5257.00    1.41560   1.41242   48.381
 5258.00    1.43282   1.42204   48.260
 5259.00    1.42629   1.42075   49.011
 5260.00    1.40037   1.40567   50.618
 5261.00    1.36603   1.37895   52.885
 5262.00    1.32544   1.34623   55.219
 5263.00    1.29280   1.31463   56.865
 5264.00    1.27779   1.29046   57.696
 5265.00    1.27255   1.27688   57.451
 5266.00    1.28098   1.27179   56.387
 5267.00    1.30039   1.26797   56.042
 5268.00    1.29669   1.26012   57.687
 5269.00    1.25982   1.25200   59.074
 5270.00    1.25076   1.25412   57.128
 5271.00    1.29896   1.27284   53.887
 5272.00    1.34838   1.30201   52.159
 5273.00    1.36048   1.32904   51.877
 5274.00    1.35995   1.34706   51.884
 5275.00    1.36182   1.35944   51.487
 5276.00    1.38112   1.37362   50.215
 5277.00    1.41007   1.39123   48.697
 5278.00    1.43452   1.40658   48.189
 5279.00    1.44243   1.41243   48.800
 5280.00    1.42822   1.40622   50.051
 5281.00    1.40302   1.39197   51.244
 5282.00    1.37759   1.37797   51.955
 5283.00    1.36715   1.37269   51.778
 5284.00    1.38298   1.38077   50.499
 5285.00    1.41599   1.40022   48.915
 5286.00    1.41761   1.42326   47.726
 5287.00    1.39575   1.44192   47.609
 5288.00    1.44494   1.45285   47.813
 5289.00    1.45356   1.45740   47.708
 5290.00    1.45480   1.45832   47.468
 5291.00    1.45130   1.45710   47.492
 5292.00    1.44657   1.45399   47.843
 5293.00    1.44580   1.44828   48.359
 5294.00    1.44409   1.43821   49.211
 5295.00    1.42339   1.42218   50.752
 5296.00    1.37813   1.40192   52.562
 5297.00    1.34748   1.38356   53.410
 5298.00    1.34510   1.37414   52.672
 5299.00    1.36903   1.37605   51.395
 5300.00    1.39158   1.38588   50.650
 5301.00    1.39951   1.39889   50.267
 5302.00    1.40279   1.41275   49.402
 5303.00    1.42215   1.42701   48.161
 5304.00    1.44813   1.43991   47.530
 5305.00    1.45291   1.44839   47.623
 5306.00    1.44714   1.45135   48.103
 5307.00    1.44408   1.45126   48.294
 5308.00    1.44724   1.45195   47.881
 5309.00    1.45806   1.45494   47.429
 5310.00    1.46987   1.45844   47.243
 5311.00    1.46905   1.45973   47.375
 5312.00    1.45638   1.45721   47.634
 5313.00    1.44991   1.45079   47.879
 5314.00    1.44593   1.44142   48.273
 5315.00    1.44005   1.43112   48.744
 5316.00    1.42602   1.42336   49.047
 5317.00    1.42129   1.42125   48.923
 5318.00    1.42858   1.42483   48.588
 5319.00    1.44123   1.43065   48.508
 5320.00    1.44223   1.43371   48.757
 5321.00    1.43495   1.43046   49.178
 5322.00    1.42560   1.42046   49.856
 5323.00    1.40844   1.40628   50.623
 5324.00    1.40355   1.39046   50.919
 5325.00    1.39808   1.37205   51.297
 5326.00    1.37763   1.34897   53.353
 5327.00    1.32891   1.32430   56.398
 5328.00    1.29363   1.30927   56.844
 5329.00    1.31486   1.31492   54.059
 5330.00    1.36403   1.34025   51.236
 5331.00    1.40694   1.37297   50.007
 5332.00    1.42687   1.40019   49.549
 5333.00    1.43292   1.41706   49.042
 5334.00    1.43954   1.42597   48.575
 5335.00    1.44316   1.42984   48.545
 5336.00    1.43815   1.42929   48.887
 5337.00    1.42816   1.42376   49.268
 5338.00    1.42086   1.41331   50.035
 5339.00    1.40713   1.40052   51.228
 5340.00    1.38562   1.39100   51.695
 5341.00    1.38974   1.39020   50.893
 5342.00    1.41428   1.39827   49.609
 5343.00    1.43487   1.40972   49.019
 5344.00    1.44640   1.41769   49.163
 5345.00    1.44203   1.41908   49.499
 5346.00    1.43637   1.41559   49.793
 5347.00    1.42813   1.41054   50.096
 5348.00    1.41803   1.40727   50.460
 5349.00    1.41810   1.40885   50.280
 5350.00    1.42707   1.41644   49.330
 5351.00    1.44465   1.42856   48.328
 5352.00    1.45609   1.44197   47.895
 5353.00    1.45876   1.45399   47.696
 5354.00    1.46444   1.46424   47.232
 5355.00    1.47930   1.47288   46.692
 5356.00    1.48645   1.47945   46.477
 5357.00    1.48066   1.48298   46.550
 5358.00    1.48421   1.48265   46.652
 5359.00    1.48692   1.47825   46.944
 5360.00    1.47376   1.47011   47.591
 5361.00    1.45565   1.45930   48.373
 5362.00    1.43922   1.44770   48.962
 5363.00    1.42858   1.43723   49.267
 5364.00    1.42221   1.42932   49.554
 5365.00    1.41976   1.42424   49.714
 5366.00    1.42739   1.42064   49.580
 5367.00    1.43032   1.41538   49.745
 5368.00    1.42212   1.40482   50.506
 5369.00    1.40075   1.38863   51.897
 5370.00    1.36759   1.37250   53.054
 5371.00    1.36688   1.36617   52.462
 5372.00    1.38795   1.37616   50.266
 5373.00    1.42277   1.39974   48.266
 5374.00    1.46245   1.42710   47.404
 5375.00    1.48151   1.44818   47.249
 5376.00    1.49129   1.45955   47.379
 5377.00    1.49086   1.46324   47.411
 5378.00    1.48129   1.46251   47.566
 5379.00    1.47142   1.45899   47.914
 5380.00    1.45826   1.45309   48.400
 5381.00    1.44779   1.44616   48.802
 5382.00    1.44322   1.44071   48.941
 5383.00    1.44566   1.43908   48.831
 5384.00    1.45387   1.44205   48.496
 5385.00    1.46655   1.44787   48.089
 5386.00    1.47194   1.45315   48.119
 5387.00    1.47045   1.45450   48.432
 5388.00    1.45886   1.45034   49.002
 5389.00    1.44573   1.44179   49.708
 5390.00    1.44134   1.43164   50.147
 5391.00    1.43861   1.42248   50.288
 5392.00    1.43427   1.41547   50.342
 5393.00    1.42812   1.40964   50.574
 5394.00    1.41926   1.40257   51.055
 5395.00    1.40925   1.39275   51.861
 5396.00    1.39380   1.38264   52.620
 5397.00    1.38353   1.37829   52.077
 5398.00    1.40675   1.38382   50.451
 5399.00    1.43630   1.39734   49.370
 5400.00    1.44354   1.41162   49.267
 5401.00    1.44039   1.41876   49.472
 5402.00    1.43917   1.41421   50.227
 5403.00    1.41841   1.39849   51.867
 5404.00    1.38490   1.37759   53.278
 5405.00    1.36512   1.36101   53.585
 5406.00    1.37258   1.35597   52.744
 5407.00    1.39673   1.36155   51.805
 5408.00    1.41127   1.37144   51.685
 5409.00    1.40222   1.38034   51.973
 5410.00    1.40345   1.38913   51.311
 5411.00    1.42154   1.40061   49.934
 5412.00    1.44458   1.41416   48.992
 5413.00    1.45752   1.42632   48.691
 5414.00    1.45834   1.43494   48.751
 5415.00    1.45857   1.44132   48.647
 5416.00    1.46137   1.44735   48.273
 5417.00    1.46778   1.45252   48.131
 5418.00    1.46365   1.45510   48.452
 5419.00    1.45471   1.45447   48.891
 5420.00    1.45955   1.45157   49.014
 5421.00    1.45742   1.44760   48.784
 5422.00    1.45327   1.44289   48.868
 5423.00    1.44877   1.43843   49.540
 5424.00    1.44005   1.43691   49.659
 5425.00    1.44536   1.43965   48.965
 5426.00    1.45904   1.44361   48.429
 5427.00    1.45883   1.44241   49.022
 5428.00    1.43339   1.43271   50.529
 5429.00    1.40574   1.41908   51.677
 5430.00    1.40805   1.40890   51.335
 5431.00    1.42346   1.40486   50.637
 5432.00    1.42967   1.40334   50.916
 5433.00    1.41976   1.40015   51.648
 5434.00    1.40342   1.39736   51.981
 5435.00    1.40169   1.40067   51.466
 5436.00    1.41600   1.41350   50.260
 5437.00    1.44232   1.43349   48.957
 5438.00    1.47285   1.45449   48.065
 5439.00    1.49321   1.47165   47.501
 5440.00    1.49863   1.48269   47.223
 5441.00    1.49811   1.48753   47.188
 5442.00    1.49643   1.48541   47.348
 5443.00    1.48777   1.47459   48.124
 5444.00    1.46209   1.45440   49.684
 5445.00    1.42218   1.42869   51.664
 5446.00    1.39604   1.40656   52.669
 5447.00    1.39683   1.39745   51.715
 5448.00    1.42183   1.40417   50.041
 5449.00    1.46138   1.42104   48.959
 5450.00    1.48249   1.43759   48.704
 5451.00    1.48639   1.44566   48.869
 5452.00    1.47772   1.44193   49.543
 5453.00    1.45669   1.42817   50.837
 5454.00    1.42819   1.41055   52.207
 5455.00    1.40451   1.39859   52.703
 5456.00    1.41409   1.39976   51.463
 5457.00    1.44573   1.41437   49.737
 5458.00    1.47906   1.43404   48.755
 5459.00    1.48455   1.44858   48.822
 5460.00    1.47722   1.45234   49.562
 5461.00    1.46695   1.44682   50.436
 5462.00    1.45404   1.43814   50.967
 5463.00    1.44800   1.43253   50.924
 5464.00    1.45065   1.43313   50.241
 5465.00    1.45881   1.43882   49.775
 5466.00    1.47261   1.44636   49.461
 5467.00    1.48424   1.45270   48.994
 5468.00    1.48338   1.45645   49.030
 5469.00    1.48197   1.45719   49.555
 5470.00    1.47282   1.45497   49.963
 5471.00    1.46052   1.45023   50.140
 5472.00    1.46120   1.44322   50.488
 5473.00    1.45767   1.43368   51.088
 5474.00    1.44296   1.42123   51.947
 5475.00    1.42136   1.40750   52.992
 5476.00    1.40398   1.39730   53.371
 5477.00    1.41006   1.39625   52.414
 5478.00    1.43440   1.40452   50.933
 5479.00    1.45550   1.41633   50.448
 5480.00    1.46268   1.42515   51.007
 5481.00    1.45331   1.42940   51.415
 5482.00    1.44268   1.43325   51.000
 5483.00    1.45196   1.44031   50.004
 5484.00    1.47018   1.44937   49.163
 5485.00    1.47810   1.45619   49.069
 5486.00    1.46848   1.45738   49.684
 5487.00    1.45486   1.45412   50.276
 5488.00    1.45175   1.45013   50.444
 5489.00    1.45235   1.44887   50.316
 5490.00    1.45630   1.45097   49.932
 5491.00    1.47086   1.45463   49.627
 5492.00    1.47659   1.45750   49.552
 5493.00    1.47365   1.45813   49.654
 5494.00    1.47533   1.45619   49.655
 5495.00    1.47422   1.45202   49.766
 5496.00    1.46652   1.44694   50.156
 5497.00    1.45649   1.44330   50.302
 5498.00    1.45519   1.44231   49.887
 5499.00    1.46747   1.44228   49.613
 5500.00    1.46823   1.44059   50.216
 5501.00    1.45532   1.43664   50.818
 5502.00    1.45557   1.43283   50.682
 5503.00    1.46201   1.43094   50.332
 5504.00    1.46247   1.42938   50.508
 5505.00    1.45512   1.42648   51.194
 5506.00    1.44319   1.42341   51.363
 5507.00    1.44132   1.42366   50.703
 5508.00    1.45820   1.42838   50.059
 5509.00    1.47569   1.43383   50.068
 5510.00    1.46907   1.43522   50.648
 5511.00    1.45407   1.43089   51.643
 5512.00    1.44277   1.42382   52.352
 5513.00    1.43256   1.41913   52.432
 5514.00    1.43714   1.41998   51.633
 5515.00    1.46046   1.42687   50.752
 5516.00    1.48465   1.43793   49.933
 5517.00    1.49989   1.45058   49.015
 5518.00    1.50981   1.46204   48.436
 5519.00    1.51668   1.47028   48.430
 5520.00    1.51740   1.47439   48.521
 5521.00    1.51077   1.47541   48.643
 5522.00    1.50558   1.47437   48.790
 5523.00    1.50272   1.47113   48.934
 5524.00    1.49543   1.46392   49.366
 5525.00    1.48016   1.45110   50.217
 5526.00    1.45727   1.43457   51.460
 5527.00    1.43654   1.41985   52.463
 5528.00    1.42653   1.41386   52.206
 5529.00    1.43861   1.41928   50.893
 5530.00    1.46377   1.43212   49.758
 5531.00    1.47644   1.44476   49.408
 5532.00    1.47700   1.45119   49.679
 5533.00    1.47855   1.45110   50.098
 5534.00    1.47395   1.44834   50.187
 5535.00    1.46842   1.44751   49.907
 5536.00    1.47504   1.45037   49.574
 5537.00    1.48577   1.45621   49.444
 5538.00    1.49461   1.46314   49.131
 5539.00    1.50327   1.46962   48.660
 5540.00    1.50864   1.47425   48.416
 5541.00    1.50894   1.47581   48.626
 5542.00    1.49923   1.47403   49.161
 5543.00    1.48955   1.47042   49.534
 5544.00    1.48714   1.46745   49.546
 5545.00    1.49089   1.46691   49.398
 5546.00    1.49619   1.46947   49.225
 5547.00    1.50675   1.47482   48.839
 5548.00    1.51567   1.48166   48.367
 5549.00    1.52015   1.48775   48.065
 5550.00    1.51732   1.49100   48.096
 5551.00    1.51532   1.49041   48.434
 5552.00    1.51265   1.48697   48.912
 5553.00    1.50592   1.48242   49.378
 5554.00    1.49815   1.47877   49.487
 5555.00    1.50059   1.47682   49.364
 5556.00    1.50546   1.47664   49.227
 5557.00    1.50768   1.47734   49.157
 5558.00    1.50619   1.47820   49.099
 5559.00    1.50665   1.47852   49.098
 5560.00    1.50835   1.47749   49.265
 5561.00    1.50098   1.47467   49.611
 5562.00    1.49123   1.47059   50.085
 5563.00    1.48273   1.46645   50.353
 5564.00    1.47909   1.46318   50.467
 5565.00    1.48365   1.46056   50.552
 5566.00    1.48408   1.45817   50.548
 5567.00    1.47794   1.45585   50.429
 5568.00    1.47581   1.45388   50.408
 5569.00    1.47820   1.45266   50.514
 5570.00    1.47761   1.45159   50.474
 5571.00    1.47863   1.45022   50.532
 5572.00    1.47783   1.44935   50.571
 5573.00    1.46402   1.45024   50.216
 5574.00    1.43109   1.45394   49.693
 5575.00    1.38630   1.45960   49.183
 5576.00    1.39546   1.46560   48.404
 5577.00    1.43355   1.47089   48.126
 5578.00    1.45192   1.47503   49.360
 5579.00    1.49431   1.47764   50.754
 5580.00    1.48062   1.47827   50.826
 5581.00    1.49409   1.47692   50.167
 5582.00    1.49650   1.47375   49.769
 5583.00    1.50048   1.46833   49.826
 5584.00    1.49746   1.45870   50.413
 5585.00    1.47611   1.44389   51.657
 5586.00    1.44245   1.42589   52.927
 5587.00    1.41398   1.40977   53.843
 5588.00    1.40520   1.40139   53.842
 5589.00    1.41682   1.40281   53.016
 5590.00    1.44222   1.41207   52.108
 5591.00    1.45657   1.42359   51.585
 5592.00    1.46485   1.43322   51.593
 5593.00    1.46311   1.43980   51.655
 5594.00    1.46205   1.44528   51.154
 5595.00    1.47196   1.45057   50.488
 5596.00    1.48536   1.45350   50.393
 5597.00    1.48317   1.45159   51.077
 5598.00    1.47046   1.44491   51.886
 5599.00    1.45881   1.43590   52.211
 5600.00    1.45060   1.42786   52.242
 5601.00    1.44339   1.42364   52.556
 5602.00    1.44042   1.42598   52.428
 5603.00    1.45346   1.43650   51.283
 5604.00    1.47718   1.45354   49.915
 5605.00    1.50453   1.47211   48.978
 5606.00    1.52402   1.48749   48.594
 5607.00    1.53059   1.49715   48.584
 5608.00    1.52618   1.50209   48.678
 5609.00    1.52162   1.50429   48.729
 5610.00    1.53079   1.50485   48.633
 5611.00    1.53559   1.50236   48.600
 5612.00    1.52566   1.49395   49.121
 5613.00    1.50513   1.47831   50.432
 5614.00    1.47600   1.45870   52.058
 5615.00    1.45336   1.44359   52.662
 5616.00    1.45203   1.43901   51.819
 5617.00    1.47652   1.44549   50.695
 5618.00    1.49809   1.45702   50.239
 5619.00    1.50166   1.46767   50.127
 5620.00    1.50863   1.47459   49.878
 5621.00    1.51907   1.47721   49.783
 5622.00    1.51141   1.47510   50.294
 5623.00    1.49119   1.46931   51.337
 5624.00    1.47637   1.46288   51.883
 5625.00    1.47817   1.46030   51.341
 5626.00    1.49059   1.46368   50.468
 5627.00    1.50341   1.47126   49.802
 5628.00    1.51157   1.48004   49.306
 5629.00    1.52459   1.48727   49.035
 5630.00    1.53359   1.49216   48.894
 5631.00    1.53549   1.49450   48.773
 5632.00    1.53032   1.49425   48.958
 5633.00    1.53051   1.49187   49.359
 5634.00    1.52361   1.48779   49.694
 5635.00    1.51660   1.48270   50.021
 5636.00    1.51369   1.47753   50.386
 5637.00    1.50335   1.47328   50.611
 5638.00    1.50170   1.47041   50.567
 5639.00    1.50675   1.46848   50.587
 5640.00    1.50161   1.46698   50.731
 5641.00    1.49747   1.46625   50.666
 5642.00    1.50024   1.46717   50.433
 5643.00    1.50430   1.47000   50.250
 5644.00    1.51349   1.47386   50.091
 5645.00    1.51431   1.47759   49.785
 5646.00    1.51791   1.48027   49.670
 5647.00    1.52446   1.48181   49.558
 5648.00    1.52858   1.48239   49.556
 5649.00    1.52863   1.48288   49.652
 5650.00    1.52685   1.48412   49.502
 5651.00    1.52608   1.48595   49.164
 5652.00    1.52300   1.48726   49.168
 5653.00    1.51949   1.48618   49.453
 5654.00    1.51497   1.48139   49.894
 5655.00    1.50150   1.47205   50.541
 5656.00    1.48552   1.45864   51.757
 5657.00    1.45694   1.44451   53.156
 5658.00    1.43231   1.43482   53.387
 5659.00    1.44273   1.43304   52.346
 5660.00    1.46885   1.43833   51.498
 5661.00    1.48508   1.44617   51.480
 5662.00    1.48595   1.45426   51.355
 5663.00    1.48933   1.46217   50.667
 5664.00    1.50319   1.46944   50.115
 5665.00    1.51304   1.47424   50.120
 5666.00    1.51250   1.47472   50.437
 5667.00    1.50345   1.47214   50.657
 5668.00    1.49282   1.46995   50.632
 5669.00    1.49167   1.47062   50.419
 5670.00    1.49797   1.47484   50.037
 5671.00    1.51551   1.48134   49.569
 5672.00    1.52402   1.48845   49.073
 5673.00    1.52890   1.49449   48.768
 5674.00    1.53162   1.49877   48.876
 5675.00    1.53187   1.50130   48.939
 5676.00    1.52619   1.50257   48.781
 5677.00    1.53387   1.50250   48.826
 5678.00    1.53464   1.50048   49.088
 5679.00    1.52100   1.49604   49.310
 5680.00    1.51446   1.48927   49.710
 5681.00    1.51510   1.48114   50.322
 5682.00    1.50868   1.47350   50.753
 5683.00    1.50162   1.46866   50.681
 5684.00    1.49933   1.46746   50.377
 5685.00    1.49398   1.46845   50.321
 5686.00    1.49357   1.46945   50.724
 5687.00    1.49010   1.46967   51.206
 5688.00    1.48710   1.47061   51.073
 5689.00    1.49623   1.47431   50.308
 5690.00    1.51659   1.48091   49.506
 5691.00    1.52952   1.48890   49.136
 5692.00    1.53434   1.49576   48.909
 5693.00    1.53325   1.50008   48.891
 5694.00    1.53285   1.50158   48.955
 5695.00    1.53794   1.50079   49.025
 5696.00    1.53360   1.49807   49.294
 5697.00    1.52355   1.49348   49.844
 5698.00    1.51165   1.48729   50.381
 5699.00    1.49582   1.48055   50.845
 5700.00    1.48596   1.47459   51.295
 5701.00    1.48420   1.47099   51.284
 5702.00    1.48404   1.47056   50.793
 5703.00    1.48708   1.47220   50.394
 5704.00    1.49404   1.47320   50.470
 5705.00    1.49235   1.47078   50.980
 5706.00    1.47845   1.46366   51.816
 5707.00    1.46197   1.45360   52.749
 5708.00    1.44781   1.44340   53.375
 5709.00    1.44129   1.43672   53.486
 5710.00    1.43930   1.43588   53.176
 5711.00    1.44673   1.44179   52.399
 5712.00    1.47257   1.45307   51.194
 5713.00    1.50058   1.46691   50.079
 5714.00    1.51693   1.47967   49.564
 5715.00    1.52550   1.48970   49.460
 5716.00    1.53319   1.49647   49.336
 5717.00    1.52897   1.50123   49.146
 5718.00    1.52972   1.50518   48.869
 5719.00    1.53783   1.50913   48.577
 5720.00    1.54133   1.51331   48.398
 5721.00    1.53579   1.51719   48.305
 5722.00    1.54381   1.52008   48.239
 5723.00    1.54888   1.52091   48.243
 5724.00    1.54349   1.51898   48.477
 5725.00    1.53447   1.51414   48.951
 5726.00    1.52966   1.50818   49.432
 5727.00    1.52519   1.50335   49.581
 5728.00    1.52429   1.50148   49.241
 5729.00    1.52503   1.50209   49.100
 5730.00    1.52375   1.50382   49.317
 5731.00    1.53025   1.50600   49.423
 5732.00    1.54023   1.50892   49.088
 5733.00    1.55156   1.51300   48.644
 5734.00    1.55328   1.51694   48.479
 5735.00    1.54815   1.51925   48.559
 5736.00    1.54073   1.51941   48.645
 5737.00    1.54160   1.51809   48.764
 5738.00    1.54527   1.51688   48.812
 5739.00    1.53931   1.51616   48.916
 5740.00    1.53655   1.51600   48.997
 5741.00    1.53232   1.51602   49.033
 5742.00    1.53064   1.51653   48.918
 5743.00    1.53434   1.51784   48.770
 5744.00    1.53596   1.51958   48.411
 5745.00    1.54002   1.52044   48.348
 5746.00    1.53789   1.51955   48.740
 5747.00    1.53192   1.51739   49.138
 5748.00    1.53232   1.51606   49.125
 5749.00    1.53718   1.51564   48.841
 5750.00    1.54152   1.51463   48.898
 5751.00    1.53688   1.51071   49.408
 5752.00    1.52183   1.50407   49.989
 5753.00    1.50963   1.49879   50.298
 5754.00    1.51188   1.49859   50.015
 5755.00    1.52331   1.50494   49.217
 5756.00    1.53972   1.51457   48.398
 5757.00    1.55288   1.52271   48.113
 5758.00    1.55272   1.52541   48.464
 5759.00    1.54379   1.52167   49.072
 5760.00    1.53500   1.51372   49.732
 5761.00    1.52609   1.50544   50.264
 5762.00    1.51715   1.50154   50.191
 5763.00    1.52300   1.50421   49.453
 5764.00    1.53481   1.51258   48.642
 5765.00    1.54715   1.52225   48.233
 5766.00    1.56048   1.52980   48.156
 5767.00    1.56172   1.53326   48.100
 5768.00    1.55215   1.53363   48.078
 5769.00    1.55031   1.53199   48.216
 5770.00    1.55376   1.52941   48.418
 5771.00    1.54875   1.52632   48.709
 5772.00    1.53544   1.52314   48.950
 5773.00    1.52376   1.52003   49.032
 5774.00    1.52675   1.51733   49.032
 5775.00    1.52999   1.51558   48.863
 5776.00    1.53025   1.51427   48.675
 5777.00    1.51730   1.51197   48.720
 5778.00    1.49425   1.50698   49.084
 5779.00    1.47146   1.49856   49.992
 5780.00    1.45497   1.48841   50.991
 5781.00    1.45698   1.47913   51.339
 5782.00    1.46994   1.47328   51.146
 5783.00    1.48658   1.47136   50.950
 5784.00    1.50369   1.47290   50.768
 5785.00    1.50686   1.47716   50.446
 5786.00    1.51446   1.48375   49.810
 5787.00    1.53129   1.49120   49.240
 5788.00    1.53571   1.49803   49.040
 5789.00    1.53449   1.50255   49.189
 5790.00    1.53298   1.50540   49.319
 5791.00    1.52863   1.50847   49.099
 5792.00    1.53288   1.51339   48.690
 5793.00    1.53972   1.52020   48.381
 5794.00    1.53872   1.52642   48.181
 5795.00    1.53113   1.52985   48.284
 5796.00    1.52552   1.52966   48.608
 5797.00    1.52283   1.52835   48.727
 5798.00    1.52875   1.52888   48.308
 5799.00    1.54792   1.53258   47.645
 5800.00    1.56466   1.53818   47.180
 5801.00    1.56942   1.54233   47.295
 5802.00    1.57008   1.54305   47.723
 5803.00    1.56461   1.54017   48.093
 5804.00    1.54980   1.53619   48.427
 5805.00    1.54018   1.53342   48.511
 5806.00    1.54192   1.53329   48.348
 5807.00    1.54309   1.53521   48.176
 5808.00    1.54699   1.53790   48.086
 5809.00    1.55182   1.54033   48.080
 5810.00    1.55659   1.54187   47.980
 5811.00    1.56197   1.54207   47.801
 5812.00    1.56537   1.54050   47.749
 5813.00    1.57326   1.53695   47.971
 5814.00    1.56796   1.53247   48.334
 5815.00    1.56214   1.52890   48.371
 5816.00    1.56382   1.52858   48.054
 5817.00    1.56796   1.53203   47.744
 5818.00    1.57528   1.53770   47.499
 5819.00    1.57623   1.54323   47.293
 5820.00    1.57861   1.54664   47.224
 5821.00    1.58242   1.54786   47.353
 5822.00    1.57851   1.54744   47.438
 5823.00    1.57855   1.54672   47.334
 5824.00    1.58108   1.54636   47.263
 5825.00    1.58162   1.54702   47.187
 5826.00    1.58186   1.54844   47.167
 5827.00    1.58159   1.55040   47.213
 5828.00    1.58771   1.55238   47.249
 5829.00    1.58475   1.55385   47.174
 5830.00    1.57996   1.55433   47.172
 5831.00    1.58370   1.55365   47.154
 5832.00    1.58404   1.55174   47.344
 5833.00    1.58236   1.54926   47.595
 5834.00    1.58207   1.54682   47.564
 5835.00    1.57910   1.54557   47.411
 5836.00    1.58077   1.54560   47.413
 5837.00    1.58886   1.54688   -1.000
 5838.00    1.58179   1.54896   47.582
 5839.00    1.57791   1.55160   47.336
 5840.00    1.57845   1.55420   47.007
 5841.00    1.57588   1.55608   46.864
 5842.00    1.58228   1.55601   46.948
 5843.00    1.58278   1.55391   47.125
 5844.00    1.57424   1.54978   47.356
 5845.00    1.57389   1.54483   47.658
 5846.00    1.57289   1.53988   47.885
 5847.00    1.56963   1.53599   48.020
 5848.00    1.57056   1.53292   47.986
 5849.00    1.56995   1.52992   48.150
 5850.00    1.56587   1.52554   48.451
 5851.00    1.55915   1.51921   48.818
 5852.00    1.55022   1.51205   49.230
 5853.00    1.54180   1.50556   49.385
 5854.00    1.53872   1.50032   49.449
 5855.00    1.53872   1.49506   -1.000
 5856.00    1.53446   1.48908   -1.000
 5857.00    1.52634   1.48454   -1.000
 5858.00    1.52655   1.48403   -1.000
 5859.00    1.53863   1.48914   -1.000
 5860.00    1.55430   1.49722   -1.000
 5861.00    1.56354   1.50524   -1.000
 5862.00    1.56097   1.51079   -1.000
 5863.00    1.56103   1.51353   -1.000
 5864.00    1.56200   1.51385   -1.000
 5865.00    1.55086   1.51270   49.032
 5866.00    1.54625   1.51171   49.176
 5867.00    1.55435   1.51285   48.948
 5868.00    1.56713   1.51675   -1.000
 5869.00    1.57734   1.52202   -1.000
 5870.00    1.58183   1.52652   -1.000
 5871.00    1.58391   1.52838   -1.000
 5872.00    1.57979   1.52787   -1.000
 5873.00    1.58076   1.52578   -1.000
 5874.00    1.57735   1.52320   -1.000
 5875.00    1.57752   1.52045   -1.000
 5876.00    1.57360   1.51716   -1.000
 5877.00    1.56871   1.51285   -1.000
 5878.00    1.56610   1.50754   -1.000
 5879.00    1.56033   1.50208   -1.000
 5880.00    1.54875   1.49737   -1.000
 5881.00    1.54431   1.49379   -1.000
 5882.00    1.54711   1.49052   -1.000
 5883.00    1.54548   1.48643   -1.000
 5884.00    1.53653   1.47981   -1.000
 5885.00    1.52742   1.46736   -1.000
 5886.00    1.48617   1.44403   50.792
 5887.00    1.38221   1.40758   53.258
 5888.00    1.23396   1.36292   -1.000
 5889.00    1.13510   1.32524   -1.000
 5890.00    1.15958   1.30755   -1.000
 5891.00    1.28060   1.31270   57.338
 5892.00    1.38306   1.32868   55.395
 5893.00    1.37031   1.33927   55.058
 5894.00    1.27856   1.33866   -1.000
 5895.00    1.20970   1.33292   -1.000
 5896.00    1.24455   1.33621   -1.000
 5897.00    1.36350   1.35390   54.429
 5898.00    1.45905   1.38261   -1.000
 5899.00    1.49959   1.41335   -1.000
 5900.00    1.51941   1.43942   -1.000
 5901.00    1.53761   1.45908   -1.000
 5902.00    1.55173   1.47278   -1.000
 5903.00    1.55734   1.48147   -1.000
 5904.00    1.55873   1.48667   -1.000
 5905.00    1.55434   1.48989   -1.000
 5906.00    1.55625   1.49243   -1.000
 5907.00    1.56173   1.49520   -1.000
 5908.00    1.56530   1.49792   -1.000
 5909.00    1.56201   1.50010   -1.000
 5910.00    1.55455   1.50043   -1.000
 5911.00    1.55372   1.49812   -1.000
 5912.00    1.54710   1.49270   -1.000
 5913.00    1.53210   1.48564   -1.000
 5914.00    1.52633   1.47908   -1.000
 5915.00    1.52372   1.47575   -1.000
 5916.00    1.51804   1.47637   50.349
 5917.00    1.51922   1.48057   50.172
 5918.00    1.53013   1.48615   49.988
 5919.00    1.53993   1.49127   -1.000
 5920.00    1.54514   1.49464   -1.000
 5921.00    1.54518   1.49631   -1.000
 5922.00    1.53734   1.49729   49.742
 5923.00    1.54149   1.49878   49.531
 5924.00    1.55230   1.50125   -1.000
 5925.00    1.55437   1.50394   -1.000
 5926.00    1.55676   1.50565   -1.000
 5927.00    1.55381   1.50505   -1.000
 5928.00    1.55341   1.50255   -1.000
 5929.00    1.55007   1.49976   -1.000
 5930.00    1.54616   1.49872   -1.000
 5931.00    1.54884   1.49965   -1.000
 5932.00    1.54937   1.50111   -1.000
 5933.00    1.55210   1.50166   -1.000
 5934.00    1.55247   1.50145   -1.000
 5935.00    1.54762   1.50194   -1.000
 5936.00    1.55044   1.50394   -1.000
 5937.00    1.55848   1.50617   -1.000
 5938.00    1.55198   1.50697   -1.000
 5939.00    1.54249   1.50501   49.654
 5940.00    1.53520   1.50147   50.112
 5941.00    1.53330   1.49814   50.241
 5942.00    1.53350   1.49710   50.082
 5943.00    1.54178   1.49887   -1.000
 5944.00    1.55150   1.50204   -1.000
 5945.00    1.54882   1.50459   -1.000
 5946.00    1.54946   1.50463   -1.000
 5947.00    1.54489   1.50258   -1.000
 5948.00    1.53914   1.49997   50.625
 5949.00    1.53902   1.49879   50.553
 5950.00    1.54372   1.49886   -1.000
 5951.00    1.54089   1.49966   50.233
 5952.00    1.53638   1.50001   50.331
 5953.00    1.53719   1.49994   50.245
 5954.00    1.53793   1.49914   50.189
 5955.00    1.53507   1.49786   50.284
 5956.00    1.53381   1.49683   50.462
 5957.00    1.53443   1.49749   50.416
 5958.00    1.54265   1.50100   50.049
 5959.00    1.55496   1.50654   -1.000
 5960.00    1.57199   1.51280   -1.000
 5961.00    1.57704   1.51748   -1.000
 5962.00    1.57480   1.51974   -1.000
 5963.00    1.56863   1.51926   -1.000
 5964.00    1.56223   1.51710   -1.000
 5965.00    1.55341   1.51471   49.615
 5966.00    1.55141   1.51381   49.690
 5967.00    1.55026   1.51484   49.442
 5968.00    1.55107   1.51742   49.136
 5969.00    1.56078   1.52052   49.089
 5970.00    1.56692   1.52313   -1.000
 5971.00    1.56634   1.52452   -1.000
 5972.00    1.56450   1.52409   49.021
 5973.00    1.56436   1.52154   -1.000
 5974.00    1.56089   1.51697   -1.000
 5975.00    1.54660   1.51134   50.131
 5976.00    1.53137   1.50658   50.437
 5977.00    1.52888   1.50413   50.480
 5978.00    1.54063   1.50512   50.129
 5979.00    1.55212   1.50798   -1.000
 5980.00    1.55422   1.51058   -1.000
 5981.00    1.55349   1.51043   -1.000
 5982.00    1.54955   1.50707   -1.000
 5983.00    1.53845   1.50250   50.803
 5984.00    1.53033   1.49941   50.871
 5985.00    1.53417   1.50006   50.514
 5986.00    1.54147   1.50371   50.038
 5987.00    1.54540   1.50872   49.817
 5988.00    1.54441   1.51295   49.631
 5989.00    1.54644   1.51572   49.497
 5990.00    1.54859   1.51768   49.626
 5991.00    1.54823   1.52010   49.604
 5992.00    1.55191   1.52388   49.256
 5993.00    1.55890   1.52792   48.934
 5994.00    1.56726   1.53051   -1.000
 5995.00    1.56919   1.52996   -1.000
 5996.00    1.56441   1.52698   -1.000
 5997.00    1.55441   1.52341   49.847
 5998.00    1.54785   1.52101   49.868
 5999.00    1.54817   1.51996   49.811
 6000.00    1.55246   1.51928   49.971
 6001.00    1.54940   1.51823   50.244
 6002.00    1.54967   1.51669   50.322
 6003.00    1.54900   1.51519   50.243
 6004.00    1.54163   1.51336   50.159
 6005.00    1.53904   1.51042   50.336
 6006.00    1.52958   1.50639   50.787
 6007.00    1.52318   1.50319   51.118
 6008.00    1.52235   1.50293   50.835
 6009.00    1.52813   1.50644   50.220
 6010.00    1.53850   1.51103   49.917
 6011.00    1.54408   1.51428   50.131
 6012.00    1.54399   1.51506   50.502
 6013.00    1.54635   1.51440   50.555
 6014.00    1.54641   1.51385   50.343
 6015.00    1.54565   1.51323   50.457
 6016.00    1.54354   1.51228   50.652
 6017.00    1.54661   1.51069   -1.000
 6018.00    1.54134   1.50868   50.601
 6019.00    1.53146   1.50691   50.855
 6020.00    1.52952   1.50591   50.997
 6021.00    1.53325   1.50627   50.687
 6022.00    1.53434   1.50816   50.424
 6023.00    1.53349   1.51162   50.358
 6024.00    1.54583   1.51628   50.204
 6025.00    1.55297   1.52164   49.933
 6026.00    1.55294   1.52697   49.743
 6027.00    1.55316   1.53175   49.442
 6028.00    1.55685   1.53571   49.297
 6029.00    1.56181   1.53861   49.272
 6030.00    1.56276   1.54081   49.331
 6031.00    1.56441   1.54259   49.379
 6032.00    1.56646   1.54444   49.216
 6033.00    1.56917   1.54642   49.022
 6034.00    1.56718   1.54812   48.948
 6035.00    1.56697   1.54895   48.909
 6036.00    1.57059   1.54827   48.863
 6037.00    1.57075   1.54616   49.019
 6038.00    1.56529   1.54308   49.254
 6039.00    1.56345   1.53960   49.351
 6040.00    1.56001   1.53639   49.420
 6041.00    1.55409   1.53388   49.299
 6042.00    1.55780   1.53292   49.171
 6043.00    1.56339   1.53552   48.843
 6044.00    1.56532   1.54073   48.599
 6045.00    1.56802   1.54730   48.668
 6046.00    1.57456   1.55236   48.635
 6047.00    1.57536   1.55507   48.595
 6048.00    1.57156   1.55555   48.704
 6049.00    1.57051   1.55478   48.863
 6050.00    1.56919   1.55333   48.939
 6051.00    1.57109   1.55113   48.997
 6052.00    1.57229   1.54826   49.137
 6053.00    1.56732   1.54459   49.330
 6054.00    1.56337   1.54074   49.520
 6055.00    1.56108   1.53736   49.764
 6056.00    1.55587   1.53546   49.810
 6057.00    1.55623   1.53544   49.635
 6058.00    1.56173   1.53701   49.359
 6059.00    1.56480   1.53908   49.226
 6060.00    1.56427   1.53943   49.337
 6061.00    1.56137   1.53685   49.672
 6062.00    1.55177   1.53058   50.547
 6063.00    1.51642   1.52307   50.532
 6064.00    1.51668   1.51734   57.004
 6065.00    1.43788   1.51718   33.470
 6066.00    0.85236   1.52305   -1.000
 6067.00    0.46784   1.53303   -1.000
 6068.00    1.06335   1.54327   -1.000
 6069.00    1.45447   1.55138   -1.000
 6070.00    1.54806   1.55633   47.715
 6071.00    1.44773   1.55902   -1.000
 6072.00    0.92816   1.55982   -1.000
 6073.00    0.71653   1.55951   -1.000
 6074.00    1.55208   1.55778   48.919
 6075.00    1.58537   1.55449   -1.000
 6076.00    1.56490   1.54983   49.405
 6077.00    1.56086   1.54445   49.727
 6078.00    1.55761   1.53954   50.094
 6079.00    1.55285   1.53552   50.286
 6080.00    1.53962   1.53233   50.294
 6081.00    1.53684   1.52976   50.383
 6082.00    1.53889   1.52827   50.482
 6083.00    1.53738   1.52814   50.449
 6084.00    1.54372   1.52942   50.405
 6085.00    1.54456   1.53154   50.315
 6086.00    1.54459   1.53370   50.138
 6087.00    1.55352   1.53494   50.044
 6088.00    1.55758   1.53456   50.250
 6089.00    1.54739   1.53262   50.538
 6090.00    1.54006   1.53026   50.650
 6091.00    1.53848   1.52927   50.490
 6092.00    1.54375   1.53055   50.167
 6093.00    1.54814   1.53418   49.915
 6094.00    1.55246   1.53882   49.652
 6095.00    1.55239   1.54332   49.531
 6096.00    1.55370   1.54666   49.610
 6097.00    1.55282   1.54814   49.707
 6098.00    1.55007   1.54671   49.718
 6099.00    1.54813   1.54053   49.940
 6100.00    1.53429   1.52970   50.830
 6101.00    1.51607   1.51624   51.977
 6102.00    1.50071   1.50629   52.307
 6103.00    1.50600   1.50386   51.588
 6104.00    1.52693   1.50951   50.637
 6105.00    1.54250   1.51957   50.118
 6106.00    1.54594   1.52970   50.132
 6107.00    1.53886   1.53759   50.326
 6108.00    1.53822   1.54299   50.385
 6109.00    1.54746   1.54615   50.319
 6110.00    1.54840   1.54768   50.161
 6111.00    1.54853   1.54838   50.009
 6112.00    1.54828   1.54920   49.924
 6113.00    1.54541   1.55018   49.685
 6114.00    1.54478   1.55094   49.700
 6115.00    1.54789   1.55035   49.971
 6116.00    1.54797   1.54804   50.214
 6117.00    1.54350   1.54287   50.322
 6118.00    1.53894   1.53334   50.769
 6119.00    1.52676   1.52052   51.522
 6120.00    1.50765   1.50660   52.111
 6121.00    1.49428   1.49688   52.423
 6122.00    1.49385   1.49560   52.088
 6123.00    1.50625   1.50213   51.232
 6124.00    1.52058   1.51271   50.840
 6125.00    1.52627   1.52199   50.996
 6126.00    1.52326   1.52765   51.181
 6127.00    1.51870   1.53036   51.061
 6128.00    1.52258   1.53315   50.835
 6129.00    1.53304   1.53798   50.366
 6130.00    1.54037   1.54384   50.027
 6131.00    1.54802   1.54786   50.033
 6132.00    1.54749   1.54591   50.284
 6133.00    1.53005   1.53554   51.041
 6134.00    1.50713   1.51736   52.392
 6135.00    1.47801   1.49624   53.889
 6136.00    1.45443   1.48033   54.771
 6137.00    1.45204   1.47551   54.240
 6138.00    1.46705   1.48110   52.690
 6139.00    1.49098   1.49177   51.540
 6140.00    1.50351   1.50148   51.298
 6141.00    1.50189   1.50988   51.436
 6142.00    1.50360   1.51816   51.285
 6143.00    1.51561   1.52698   50.674
 6144.00    1.52373   1.53454   50.264
 6145.00    1.53420   1.53818   50.353
 6146.00    1.53959   1.53741   50.641
 6147.00    1.52687   1.53319   50.986
 6148.00    1.51857   1.52839   51.332
 6149.00    1.51795   1.52506   51.513
 6150.00    1.51493   1.52454   51.418
 6151.00    1.52506   1.52602   51.149
 6152.00    1.53269   1.52758   50.888
 6153.00    1.53073   1.52746   51.042
 6154.00    1.53817   1.52508   51.455
 6155.00    1.53187   1.52118   51.611
 6156.00    1.52264   1.51587   51.697
 6157.00    1.51753   1.50829   52.058
 6158.00    1.51228   1.49638   52.807
 6159.00    1.49462   1.47849   54.078
 6160.00    1.46523   1.45720   55.751
 6161.00    1.43640   1.43782   56.949
 6162.00    1.42795   1.42798   56.866
 6163.00    1.43481   1.42949   55.627
 6164.00    1.45229   1.44004   54.298
 6165.00    1.46630   1.45243   53.764
 6166.00    1.47637   1.46148   53.719
 6167.00    1.47034   1.46448   54.100
 6168.00    1.45728   1.46339   54.800
 6169.00    1.44398   1.46258   54.966
 6170.00    1.45072   1.46544   54.220
 6171.00    1.47108   1.47280   53.229
 6172.00    1.48149   1.48188   52.822
 6173.00    1.48830   1.49017   52.941
 6174.00    1.50099   1.49628   52.905
 6175.00    1.50210   1.50035   52.771
 6176.00    1.49705   1.50348   52.659
 6177.00    1.50073   1.50619   52.466
 6178.00    1.50809   1.50892   52.222
 6179.00    1.50557   1.51157   52.050
 6180.00    1.50975   1.51425   51.856
 6181.00    1.51140   1.51643   51.648
 6182.00    1.51498   1.51755   51.619
 6183.00    1.51498   1.51684   51.775
 6184.00    1.51602   1.51391   52.050
 6185.00    1.51127   1.50861   52.549
 6186.00    1.50608   1.50145   53.126
 6187.00    1.50010   1.49268   53.652
 6188.00    1.48949   1.48251   54.112
 6189.00    1.47990   1.47222   54.613
 6190.00    1.46889   1.46424   55.227
 6191.00    1.45597   1.46252   55.162
 6192.00    1.46247   1.46799   54.162
 6193.00    1.48459   1.47912   52.932
 6194.00    1.50126   1.49130   52.332
 6195.00    1.50595   1.50095   52.148
 6196.00    1.50810   1.50565   52.248
 6197.00    1.50486   1.50576   52.733
 6198.00    1.49687   1.50294   53.300
 6199.00    1.48676   1.50085   53.524
 6200.00    1.47523   1.50187   53.237
 6201.00    1.47477   1.50634   52.603
 6202.00    1.49032   1.51270   52.133
 6203.00    1.50458   1.51847   52.100
 6204.00    1.51055   1.52265   52.075
 6205.00    1.51613   1.52518   52.008
 6206.00    1.52052   1.52644   52.097
 6207.00    1.52416   1.52655   52.239
 6208.00    1.52148   1.52495   52.299
 6209.00    1.51152   1.52096   52.657
 6210.00    1.50341   1.51414   53.135
 6211.00    1.49573   1.50461   53.579
 6212.00    1.48717   1.49343   54.232
 6213.00    1.47784   1.48310   54.982
 6214.00    1.47107   1.47540   55.342
 6215.00    1.47054   1.47165   55.112
 6216.00    1.47353   1.47062   54.482
 6217.00    1.48076   1.47086   54.543
 6218.00    1.48393   1.47101   54.780
 6219.00    1.47311   1.47143   54.423
 6220.00    1.47235   1.47290   54.297
 6221.00    1.48577   1.47558   56.094
 6222.00    1.49916   1.47874   58.312
 6223.00    1.44833   1.48165   55.405
 6224.00    1.32070   1.48366   -1.000
 6225.00    1.40283   1.48420   -1.000
 6226.00    1.51972   1.48215   54.072
 6227.00    1.49698   1.47615   54.577
 6228.00    1.48775   1.46656   55.427
 6229.00    1.46812   1.45577   56.278
 6230.00    1.45272   1.44871   56.601
 6231.00    1.45015   1.44848   56.045
 6232.00    1.46163   1.45582   55.097
 6233.00    1.48026   1.46719   54.091
 6234.00    1.49801   1.47819   53.472
 6235.00    1.50544   1.48447   53.517
 6236.00    1.49650   1.48505   53.999
 6237.00    1.48532   1.48079   54.558
 6238.00    1.47822   1.47456   55.122
 6239.00    1.47006   1.46859   55.576
 6240.00    1.46852   1.46400   55.672
 6241.00    1.46434   1.46021   55.797
 6242.00    1.45608   1.45631   56.238
 6243.00    1.45093   1.45259   56.440
 6244.00    1.44856   1.45034   56.241
 6245.00    1.45742   1.45155   55.779
 6246.00    1.47319   1.45708   55.149
 6247.00    1.48040   1.46526   54.482
 6248.00    1.48593   1.47291   54.125
 6249.00    1.49389   1.47635   54.331
 6250.00    1.48343   1.47391   55.075
 6251.00    1.46122   1.46674   56.011
 6252.00    1.45033   1.45840   56.542
 6253.00    1.44378   1.45166   56.818
 6254.00    1.44180   1.44767   56.888
 6255.00    1.43626   1.44567   57.057
 6256.00    1.42619   1.44469   57.628
 6257.00    1.42201   1.44560   57.840
 6258.00    1.42865   1.44941   57.282
 6259.00    1.44160   1.45693   56.371
 6260.00    1.46516   1.46693   55.564
 6261.00    1.47842   1.47741   54.775
 6262.00    1.48253   1.48583   54.135
 6263.00    1.48020   1.49101   54.187
 6264.00    1.48189   1.49321   54.649
 6265.00    1.48395   1.49381   54.764
 6266.00    1.47527   1.49414   54.406
 6267.00    1.47798   1.49407   54.227
 6268.00    1.48322   1.49360   54.506
 6269.00    1.47771   1.49267   54.649
 6270.00    1.48081   1.49184   54.501
 6271.00    1.48941   1.49090   54.330
 6272.00    1.48656   1.48880   54.312
 6273.00    1.48317   1.48413   54.575
 6274.00    1.47386   1.47632   55.009
 6275.00    1.45430   1.46647   55.621
 6276.00    1.43301   1.45597   56.753
 6277.00    1.40906   1.44723   58.082
 6278.00    1.39541   1.44139   58.827
 6279.00    1.38308   1.44007   58.913
 6280.00    1.37632   1.44356   58.371
 6281.00    1.38262   1.45172   57.362
 6282.00    1.39207   1.46291   56.412
 6283.00    1.39932   1.47508   55.624
 6284.00    1.41277   1.48615   55.051
 6285.00    1.43416   1.49518   54.594
 6286.00    1.45595   1.50144   54.134
 6287.00    1.46979   1.50487   53.871
 6288.00    1.48254   1.50487   53.936
 6289.00    1.48526   1.50228   54.321
 6290.00    1.48303   1.49788   54.773
 6291.00    1.47526   1.49338   55.060
 6292.00    1.46689   1.48921   55.123
 6293.00    1.46614   1.48535   55.197
 6294.00    1.46511   1.48096   55.424
 6295.00    1.45370   1.47598   55.859
 6296.00    1.43724   1.47137   56.110
 6297.00    1.42523   1.46828   56.107
 6298.00    1.41474   1.46685   55.953
 6299.00    1.40621   1.46659   55.700
 6300.00    1.41106   1.46691   55.726
 6301.00    1.41723   1.46870   56.326
 6302.00    1.43565   1.47277   56.550
 6303.00    1.46319   1.47911   55.819
 6304.00    1.47973   1.48667   54.987
 6305.00    1.47795   1.49417   54.410
 6306.00    1.48386   1.50082   53.949
 6307.00    1.49455   1.50591   53.606
 6308.00    1.49631   1.50893   53.677
 6309.00    1.48574   1.50952   53.986
 6310.00    1.48600   1.50801   54.302
 6311.00    1.48416   1.50500   54.501
 6312.00    1.48328   1.50119   54.663
 6313.00    1.47285   1.49686   54.871
 6314.00    1.46866   1.49235   55.303
 6315.00    1.46289   1.48828   55.380
 6316.00    1.45522   1.48518   55.321
 6317.00    1.45418   1.48418   55.318
 6318.00    1.46170   1.48628   55.299
 6319.00    1.47089   1.49145   54.893
 6320.00    1.47303   1.49844   54.241
 6321.00    1.47757   1.50593   53.848
 6322.00    1.48356   1.51280   53.675
 6323.00    1.49325   1.51858   53.452
 6324.00    1.49865   1.52285   53.200
 6325.00    1.49848   1.52545   53.096
 6326.00    1.49929   1.52670   52.986
 6327.00    1.50286   1.52716   52.819
 6328.00    1.50397   1.52763   52.893
 6329.00    1.49469   1.52830   52.926
 6330.00    1.49368   1.52913   52.876
 6331.00    1.50173   1.52914   52.704
 6332.00    1.50940   1.52660   52.715
 6333.00    1.50064   1.52092   52.872
 6334.00    1.48301   1.51301   53.416
 6335.00    1.45461   1.50642   54.334
 6336.00    1.43266   1.50415   54.135
 6337.00    1.46664   1.50683   53.609
 6338.00    1.49091   1.51298   53.042
 6339.00    1.49475   1.51951   52.577
 6340.00    1.49998   1.52403   52.346
 6341.00    1.50557   1.52529   52.198
 6342.00    1.49947   1.52372   52.427
 6343.00    1.49379   1.52084   52.783
 6344.00    1.49435   1.51915   52.739
 6345.00    1.50020   1.51998   52.527
 6346.00    1.50228   1.52381   52.201
 6347.00    1.50400   1.52968   51.892
 6348.00    1.50824   1.53602   51.788
 6349.00    1.51262   1.54108   51.766
 6350.00    1.51546   1.54360   51.702
 6351.00    1.51316   1.54290   51.831
 6352.00    1.50272   1.53942   52.072
 6353.00    1.49365   1.53411   52.447
 6354.00    1.49054   1.52853   53.025
 6355.00    1.48810   1.52321   53.304
 6356.00    1.47907   1.51808   53.346
 6357.00    1.47590   1.51266   53.687
 6358.00    1.47040   1.50719   54.190
 6359.00    1.46547   1.50226   54.218
 6360.00    1.47159   1.49864   53.987
 6361.00    1.47406   1.49703   53.866
 6362.00    1.46747   1.49793   53.773
 6363.00    1.46211   1.50170   53.511
 6364.00    1.47454   1.50764   53.150
 6365.00    1.48899   1.51483   52.834
 6366.00    1.49208   1.52169   52.534
 6367.00    1.49691   1.52732   52.188
 6368.00    1.50418   1.53088   51.920
 6369.00    1.50281   1.53309   51.867
 6370.00    1.50009   1.53476   51.834
 6371.00    1.49992   1.53691   51.631
 6372.00    1.50092   1.53982   51.554
 6373.00    1.50254   1.54251   51.680
 6374.00    1.49931   1.54403   51.738
 6375.00    1.49180   1.54370   51.886
 6376.00    1.49004   1.54144   52.111
 6377.00    1.48859   1.53777   52.416
 6378.00    1.48173   1.53382   52.721
 6379.00    1.48333   1.53043   52.847
 6380.00    1.48247   1.52855   52.897
 6381.00    1.47293   1.52826   52.962
 6382.00    1.47015   1.52927   52.890
 6383.00    1.47487   1.53108   52.886
 6384.00    1.47395   1.53326   53.115
 6385.00    1.46618   1.53566   53.162
 6386.00    1.46003   1.53778   53.184
 6387.00    1.45508   1.53897   53.365
 6388.00    1.45366   1.53837   53.638
 6389.00    1.45002   1.53518   54.094
 6390.00    1.43964   1.52911   54.588
 6391.00    1.42427   1.52145   -1.000
 6392.00    1.41020   1.51492   -1.000
 6393.00    1.39851   1.51270   -1.000
 6394.00    1.39562   1.51578   -1.000
 6395.00    1.40550   1.52129   -1.000
 6396.00    1.40762   1.52540   -1.000
 6397.00    1.40381   1.52465   -1.000
 6398.00    1.38689   1.52033   -1.000
 6399.00    1.36244   1.51629   -1.000
 6400.00    1.35092   1.51699   -1.000
 6401.00    1.35954   1.52341   -1.000
 6402.00    1.37638   1.53261   -1.000
 6403.00    1.38056   1.54049   -1.000
 6404.00    1.37650   1.54346   -1.000
 6405.00    1.36552   1.54116   -1.000
 6406.00    1.35079   1.53548   -1.000
 6407.00    1.33659   1.52940   -1.000
 6408.00    1.33354   1.52552   -1.000
 6409.00    1.32773   1.52422   -1.000
 6410.00    1.31217   1.52437   -1.000
 6411.00    1.29397   1.52539   -1.000
 6412.00    1.28142   1.52677   -1.000
 6413.00    1.28028   1.52880   -1.000
 6414.00    1.28287   1.53118   -1.000
 6415.00    1.28138   1.53329   -1.000
 6416.00    1.27731   1.53366   -1.000
 6417.00    1.26740   1.53156   -1.000
 6418.00    1.25030   1.52714   -1.000
 6419.00    1.22947   1.52253   -1.000
 6420.00    1.21130   1.52062   -1.000
 6421.00    1.20243   1.52367   -1.000
 6422.00    1.19646   1.53089   -1.000
 6423.00    1.19851   1.54014   -1.000
 6424.00    1.20542   1.54846   -1.000
 6425.00    1.19762   1.55385   -1.000
 6426.00    1.18106   1.55508   -1.000
 6427.00    1.16761   1.55150   -1.000
 6428.00    1.15770   1.54365   -1.000
