###################################################################
## OUTPUT of StarlightChains_v04.for    [Cid@UFSC - 01/Apr/2007] ##
###################################################################

## Some input info
NGC6638_a_1.cxt                          [arq_obs]
Base.BC03.S                              [arq_base]
NGC6638_a_1.msk                          [arq_masks]
StCv04.C99.config                        [arq_config]
  150                                    [N_base]
    0                                    [N_YAV_components = # of components with extra extinction!]
    0                                    [i_FitPowerLaw (1/0 = Yes/No)]
-9.99                                    [alpha_PowerLaw]
CCM                                      [red_law_option]
 1.458241                                [q_norm = A(l_norm)/A(V)]

## (Re)Sampling Parameters
 3359.00                                 [l_ini (A)]
 6428.00                                 [l_fin (A)]
    1.00                                 [dl    (A)]     (OBS: dl_cushion =    50.00 A)

## Normalization info
 4020.00                                 [l_norm (A) - for base]
 4010.00                                 [llow_norm (A) - window for f_obs]
 4060.00                                 [lupp_norm (A) - window for f_obs]
7.127479E-15                             [fobs_norm (in input units)]

## S/N
 4730.00                                 [llow_SN (A) - window for S/N]
 4780.00                                 [lupp_SN (A) - window for S/N]
  53.764                                 [S/N in S/N window]
  34.599                                 [S/N in norm. window]
  41.866                                 [S/N_err in S/N window]
  26.942                                 [S/N_err in norm. window]
  1.0000                                 [fscale_chi2]

## etc...
  2147483593                             [idum_orig]
  3064                                   [NOl_eff]
  1634                                   [Nl_eff]
  1430    NSIGMA                         [Ntot_cliped & clip_method]
  3721690                                [Nglobal_steps]
   7                                     [N_chains]
  26                                     [NEX0s_base = N_base in EX0s-fits]
 0   0   1      211   2.0   5.863E+02    [Clip-Bug, RC-Crash & Burn-In warning-flags, n_censored_weights, wei_nsig_threshold & wei_limit]
  2233    147.897    147.890      0.008  [idt_all, wdt_TotTime, wdt_UsrTime & wdt_SysTime (sec)]

## Synthesis Results - Best model ##

 2.29331E+00                             [chi2/Nl_eff]
     2.08943                             [adev (%)]

    99.96007                             [sum-of-x (%)]
 4.68933E-14                             [Flux_tot (units of input spectrum!)]
 1.59724E-09                             [Mini_tot (???)]
 8.05994E-10                             [Mcor_tot (???)]

   7.60                                  [v0_min  (km/s)]
  59.57                                  [vd_min  (km/s)]
 1.4030                                  [AV_min  (mag)]
 0.0000                                  [YAV_min (mag)]

# j     x_j(%)      Mini_j(%)     Mcor_j(%)     age_j(yr)     Z_j      (L/M)_j    YAV?  Mstars   component_j        a/Fe...       SSP_chi2r SSP_adev(%)   SSP_AV   SSP_x(%)
  1      0.0000     0.0000E+00    0.0000E+00    1.000000E+06  0.00010  8.160E-03    0   1.0000   age020_m22            0.0000     1.1071E+03    33.0421   4.0000    78.3017
  2     28.5634     1.7628E-02    3.4934E-02    3.160000E+06  0.00010  4.759E-02    0   1.0000   age045_m22            0.0000     1.1307E+02     5.4057   3.1390    95.9970
  3      0.4446     6.7590E-04    1.2834E-03    5.010000E+06  0.00010  1.932E-02    0   0.9582   age055_m22            0.0000     2.3952E+02    11.7343   3.5720    82.8299
  4      0.0000     0.0000E+00    0.0000E+00    6.610000E+06  0.00010  9.973E-03    0   0.9297   age061_m22            0.0000     1.0187E+03    32.6208   4.0000    80.6266
  5      0.0000     0.0000E+00    0.0000E+00    8.710000E+06  0.00010  7.690E-03    0   0.9030   age067_m22            0.0000     9.8133E+02    32.2813   4.0000    81.1350
  6      0.0000     0.0000E+00    0.0000E+00    1.000000E+07  0.00010  6.375E-03    0   0.8902   age070_m22            0.0000     9.6652E+02    32.4442   4.0000    81.3419
  7      0.0000     0.0000E+00    0.0000E+00    1.445000E+07  0.00010  4.874E-03    0   0.8589   age078_m22            0.0000     6.9456E+02    27.5471   4.0000    84.7260
  8      0.0000     0.0000E+00    0.0000E+00    2.512000E+07  0.00010  4.103E-03    0   0.8174   age090_m22            0.0000     2.9458E+02    16.4887   4.0000    91.0578
  9      5.0665     4.0724E-02    6.3190E-02    4.000000E+07  0.00010  3.654E-03    0   0.7830   age104_m22            0.0000     2.3982E+02     9.0350   4.0000    94.5156
 10      0.0000     0.0000E+00    0.0000E+00    5.500000E+07  0.00010  3.093E-03    0   0.7597   age110_m22            0.0000     2.6149E+02     6.9794   4.0000    95.5519
 11      0.0000     0.0000E+00    0.0000E+00    1.015200E+08  0.00010  2.431E-03    0   0.7138   age116_m22            0.0000     3.5705E+02     6.8742   3.6908    97.8776
 12      0.0000     0.0000E+00    0.0000E+00    1.609000E+08  0.00010  1.319E-03    0   0.6775   age120_m22            0.0000     3.6241E+02     7.3418   3.1705   100.4045
 13      0.0000     0.0000E+00    0.0000E+00    2.861200E+08  0.00010  1.075E-03    0   0.6412   age125_m22            0.0000     7.5092E+02    11.7907   3.0983   104.7024
 14      0.0000     0.0000E+00    0.0000E+00    5.088000E+08  0.00010  7.183E-04    0   0.6083   age130_m22            0.0000     8.8007E+02    13.6313   2.7959   107.0542
 15      0.0000     0.0000E+00    0.0000E+00    9.047900E+08  0.00010  4.524E-04    0   0.5785   age135_m22            0.0000     8.9017E+02    14.1819   2.5712   108.4719
 16      0.0000     0.0000E+00    0.0000E+00    1.278050E+09  0.00010  3.018E-04    0   0.5588   age138_m22            0.0000     5.0416E+02    11.0980   2.1190   106.2346
 17      0.0000     0.0000E+00    0.0000E+00    1.434000E+09  0.00010  2.691E-04    0   0.5532   age139_m22            0.0000     4.3333E+02    10.4701   1.9755   105.6678
 18      0.0000     0.0000E+00    0.0000E+00    2.500000E+09  0.00010  1.582E-04    0   0.5296   age150_m22            0.0000     3.9478E+02     9.7896   1.8942   106.0007
 19      0.0000     0.0000E+00    0.0000E+00    4.250000E+09  0.00010  1.007E-04    0   0.5110   age158_m22            0.0000     2.5845E+02     7.8296   1.7901   104.2552
 20      0.0000     0.0000E+00    0.0000E+00    6.250000E+09  0.00010  6.869E-05    0   0.4985   age166_m22            0.0000     1.5106E+02     5.9002   1.7805   101.5499
 21      0.0000     0.0000E+00    0.0000E+00    7.500000E+09  0.00010  5.873E-05    0   0.4931   age171_m22            0.0000     1.3805E+02     5.6849   1.7836   100.8913
 22      0.0000     0.0000E+00    0.0000E+00    1.000000E+10  0.00010  4.481E-05    0   0.4854   age181_m22            0.0000     1.3313E+02     5.6159   1.7449   100.5559
 23      0.0000     0.0000E+00    0.0000E+00    1.300000E+10  0.00010  3.489E-05    0   0.4791   age193_m22            0.0000     1.2210E+02     5.4456   1.6873   100.0944
 24      0.0010     1.0144E-03    9.5810E-04    1.500000E+10  0.00010  3.035E-05    0   0.4766   age201_m22            0.0000     1.1553E+02     5.3245   1.6503    99.9312
 25      0.0027     3.1181E-03    2.9258E-03    1.800000E+10  0.00010  2.510E-05    0   0.4735   age213_m22            0.0000     1.0008E+02     5.0363   1.5891    99.3687
 26      0.0000     0.0000E+00    0.0000E+00    1.000000E+06  0.00040  8.458E-03    0   1.0000   age020_m32            0.0000     1.0987E+03    33.4485   4.0000    78.8051
 27      0.0000     0.0000E+00    0.0000E+00    3.160000E+06  0.00040  3.973E-02    0   1.0000   age045_m32            0.0000     2.6195E+02    13.9455   4.0000    90.8884
 28      0.0000     0.0000E+00    0.0000E+00    5.010000E+06  0.00040  1.935E-02    0   0.9532   age055_m32            0.0000     5.2377E+02    21.2908   4.0000    84.8884
 29      0.0000     0.0000E+00    0.0000E+00    6.610000E+06  0.00040  1.204E-02    0   0.9243   age061_m32            0.0000     8.1116E+02    28.9547   4.0000    82.9668
 30      0.0000     0.0000E+00    0.0000E+00    8.710000E+06  0.00040  9.433E-03    0   0.9001   age067_m32            0.0000     7.4404E+02    28.0291   4.0000    83.9898
 31      0.0000     0.0000E+00    0.0000E+00    1.000000E+07  0.00040  8.053E-03    0   0.8877   age070_m32            0.0000     6.9860E+02    27.0697   4.0000    84.5222
 32      0.0000     0.0000E+00    0.0000E+00    1.445000E+07  0.00040  7.027E-03    0   0.8578   age078_m32            0.0000     2.6898E+02    13.3218   4.0000    89.3001
 33      0.0000     0.0000E+00    0.0000E+00    2.512000E+07  0.00040  4.707E-03    0   0.8166   age090_m32            0.0000     1.6504E+02     7.2978   4.0000    92.0543
 34      0.0000     0.0000E+00    0.0000E+00    4.000000E+07  0.00040  3.714E-03    0   0.7827   age104_m32            0.0000     2.0785E+02     6.3942   3.8611    94.6967
 35      0.0000     0.0000E+00    0.0000E+00    5.500000E+07  0.00040  2.982E-03    0   0.7593   age110_m32            0.0000     2.4478E+02     6.4305   3.7753    95.8743
 36      0.0000     0.0000E+00    0.0000E+00    1.015200E+08  0.00040  2.188E-03    0   0.7143   age116_m32            0.0000     4.6603E+02     8.1174   3.4080   100.4558
 37      0.0000     0.0000E+00    0.0000E+00    1.609000E+08  0.00040  1.690E-03    0   0.6856   age120_m32            0.0000     6.4037E+02    10.2274   3.1390   103.2852
 38      0.0000     0.0000E+00    0.0000E+00    2.861200E+08  0.00040  1.152E-03    0   0.6509   age125_m32            0.0000     7.8226E+02    12.6072   2.8197   106.0237
 39      0.0000     0.0000E+00    0.0000E+00    5.088000E+08  0.00040  7.331E-04    0   0.6182   age130_m32            0.0000     8.3266E+02    13.5377   2.6119   107.2676
 40      0.0000     0.0000E+00    0.0000E+00    9.047900E+08  0.00040  3.960E-04    0   0.5890   age135_m32            0.0000     5.1320E+02    11.5009   2.1797   106.0927
 41      0.0000     0.0000E+00    0.0000E+00    1.278050E+09  0.00040  2.854E-04    0   0.5687   age138_m32            0.0000     4.4354E+02    10.3976   1.9408   107.1210
 42      0.0000     0.0000E+00    0.0000E+00    1.434000E+09  0.00040  2.531E-04    0   0.5632   age139_m32            0.0000     4.3278E+02    10.3223   1.8832   107.0265
 43      0.0000     0.0000E+00    0.0000E+00    2.500000E+09  0.00040  1.488E-04    0   0.5386   age150_m32            0.0000     3.2216E+02     9.2032   1.6489   105.2827
 44      0.0000     0.0000E+00    0.0000E+00    4.250000E+09  0.00040  9.082E-05    0   0.5199   age158_m32            0.0000     1.4603E+02     6.1046   1.6201   102.0149
 45      9.4088     4.3436E+00    4.3693E+00    6.250000E+09  0.00040  6.362E-05    0   0.5076   age166_m32            0.0000     6.2671E+01     4.3463   1.6430    98.6672
 46      2.6947     1.4964E+00    1.4908E+00    7.500000E+09  0.00040  5.289E-05    0   0.5027   age171_m32            0.0000     4.9902E+01     4.0681   1.6119    97.5575
 47      0.0000     0.0000E+00    0.0000E+00    1.000000E+10  0.00040  3.972E-05    0   0.4948   age181_m32            0.0000     4.1101E+01     3.8523   1.5456    96.4229
 48      0.0000     0.0000E+00    0.0000E+00    1.300000E+10  0.00040  3.283E-05    0   0.4870   age193_m32            0.0000     7.0806E+01     4.3973   1.4694    99.0912
 49      0.0000     0.0000E+00    0.0000E+00    1.500000E+10  0.00040  2.925E-05    0   0.4854   age201_m32            0.0000     9.7099E+01     5.0050   1.4324   100.6331
 50      0.0034     4.0991E-03    3.9146E-03    1.800000E+10  0.00040  2.469E-05    0   0.4819   age213_m32            0.0000     1.0816E+02     5.2963   1.3827   101.1682
 51      0.0000     0.0000E+00    0.0000E+00    1.000000E+06  0.00400  1.114E-02    0   1.0000   age020_m42            0.0000     1.0109E+03    31.6398   4.0000    79.5189
 52      0.0000     0.0000E+00    0.0000E+00    3.160000E+06  0.00400  4.073E-02    0   0.9999   age045_m42            0.0000     1.3767E+02     6.5277   4.0000    92.7490
 53      0.0000     0.0000E+00    0.0000E+00    5.010000E+06  0.00400  2.534E-02    0   0.9488   age055_m42            0.0000     3.5378E+02    16.9242   4.0000    87.6312
 54      2.2032     2.5052E-03    4.5774E-03    6.610000E+06  0.00400  2.583E-02    0   0.9220   age061_m42            0.0000     1.5428E+02     5.9008   3.9475    92.7012
 55      1.0740     1.8489E-03    3.2914E-03    8.710000E+06  0.00400  1.706E-02    0   0.8983   age067_m42            0.0000     1.4188E+02     7.4116   3.8145    90.6145
 56      0.0000     0.0000E+00    0.0000E+00    1.000000E+07  0.00400  1.271E-02    0   0.8862   age070_m42            0.0000     1.6221E+02     8.7917   3.8255    88.9823
 57      0.0000     0.0000E+00    0.0000E+00    1.445000E+07  0.00400  7.666E-03    0   0.8571   age078_m42            0.0000     2.1984E+02     9.1116   4.0000    87.2482
 58      0.0000     0.0000E+00    0.0000E+00    2.512000E+07  0.00400  5.070E-03    0   0.8174   age090_m42            0.0000     1.4667E+02     8.1004   3.6766    90.8330
 59      0.0000     0.0000E+00    0.0000E+00    4.000000E+07  0.00400  3.505E-03    0   0.7851   age104_m42            0.0000     1.2298E+02     6.3100   3.3134    94.1773
 60      0.0000     0.0000E+00    0.0000E+00    5.500000E+07  0.00400  3.059E-03    0   0.7629   age110_m42            0.0000     2.2289E+02     5.5988   3.2721    98.8647
 61      0.0000     0.0000E+00    0.0000E+00    1.015200E+08  0.00400  2.268E-03    0   0.7207   age116_m42            0.0000     5.6313E+02     9.3931   3.0554   104.3797
 62      0.0000     0.0000E+00    0.0000E+00    1.609000E+08  0.00400  1.720E-03    0   0.6930   age120_m42            0.0000     6.0583E+02    10.2534   2.8758   106.4760
 63      0.0000     0.0000E+00    0.0000E+00    2.861200E+08  0.00400  1.079E-03    0   0.6613   age125_m42            0.0000     6.0394E+02    11.2425   2.4812   107.1474
 64      0.0000     0.0000E+00    0.0000E+00    5.088000E+08  0.00400  6.261E-04    0   0.6313   age130_m42            0.0000     6.7858E+02    12.4357   2.2564   110.0386
 65      0.0000     0.0000E+00    0.0000E+00    9.047900E+08  0.00400  3.535E-04    0   0.6024   age135_m42            0.0000     4.3040E+02    10.6174   1.8869   110.3307
 66      0.0000     0.0000E+00    0.0000E+00    1.278050E+09  0.00400  2.677E-04    0   0.5837   age138_m42            0.0000     1.4976E+02     8.1088   1.2131   108.8493
 67      0.0000     0.0000E+00    0.0000E+00    1.434000E+09  0.00400  1.910E-04    0   0.5716   age139_m42            0.0000     2.0926E+02     8.5538   1.3739   109.6191
 68      0.0000     0.0000E+00    0.0000E+00    2.500000E+09  0.00400  9.818E-05    0   0.5463   age150_m42            0.0000     5.8158E+01     5.6456   1.1684   105.0334
 69      0.0000     0.0000E+00    0.0000E+00    4.250000E+09  0.00400  5.491E-05    0   0.5269   age158_m42            0.0000     2.9031E+01     4.4904   1.0834   102.1767
 70      0.0000     0.0000E+00    0.0000E+00    6.250000E+09  0.00400  3.857E-05    0   0.5151   age166_m42            0.0000     3.2627E+01     4.7886   0.9592   101.0643
 71      0.0000     0.0000E+00    0.0000E+00    7.500000E+09  0.00400  3.243E-05    0   0.5110   age171_m42            0.0000     4.0888E+01     5.1868   0.8765   100.6545
 72      0.0000     0.0000E+00    0.0000E+00    1.000000E+10  0.00400  2.424E-05    0   0.5028   age181_m42            0.0000     5.8028E+01     5.6773   0.7938   100.1601
 73      0.0000     0.0000E+00    0.0000E+00    1.300000E+10  0.00400  1.883E-05    0   0.4927   age193_m42            0.0000     7.6730E+01     5.9416   0.7568    99.8880
 74      0.0000     0.0000E+00    0.0000E+00    1.500000E+10  0.00400  1.685E-05    0   0.4919   age201_m42            0.0000     7.0869E+01     5.8004   0.7633    99.8788
 75      0.0000     0.0000E+00    0.0000E+00    1.800000E+10  0.00400  1.452E-05    0   0.4874   age213_m42            0.0000     6.1406E+01     5.5612   0.7814   100.0953
 76      0.0000     0.0000E+00    0.0000E+00    1.000000E+06  0.00800  1.286E-02    0   1.0000   age020_m52            0.0000     9.1592E+02    30.8429   4.0000    81.3387
 77      0.0000     0.0000E+00    0.0000E+00    3.160000E+06  0.00800  3.147E-02    0   0.9966   age045_m52            0.0000     8.1783E+02    28.8731   4.0000    82.8719
 78      0.0000     0.0000E+00    0.0000E+00    5.010000E+06  0.00800  2.664E-02    0   0.9443   age055_m52            0.0000     4.7184E+02    20.0556   4.0000    86.8132
 79      0.0000     0.0000E+00    0.0000E+00    6.610000E+06  0.00800  2.151E-02    0   0.9177   age061_m52            0.0000     1.1706E+02     7.4496   3.3984    91.3404
 80      0.0000     0.0000E+00    0.0000E+00    8.710000E+06  0.00800  1.628E-02    0   0.8948   age067_m52            0.0000     1.4904E+02     7.7206   3.7702    91.1643
 81      0.0000     0.0000E+00    0.0000E+00    1.000000E+07  0.00800  1.215E-02    0   0.8827   age070_m52            0.0000     1.8126E+02     7.8733   4.0000    89.8679
 82      0.0000     0.0000E+00    0.0000E+00    1.445000E+07  0.00800  8.739E-03    0   0.8552   age078_m52            0.0000     1.8500E+02     7.5650   4.0000    91.2366
 83      0.0000     0.0000E+00    0.0000E+00    2.512000E+07  0.00800  5.676E-03    0   0.8162   age090_m52            0.0000     2.1182E+02     6.7455   3.7055    94.7823
 84      0.0000     0.0000E+00    0.0000E+00    4.000000E+07  0.00800  3.939E-03    0   0.7841   age104_m52            0.0000     2.5196E+02     6.2276   3.4930    97.4487
 85      0.0000     0.0000E+00    0.0000E+00    5.500000E+07  0.00800  3.155E-03    0   0.7627   age110_m52            0.0000     3.1149E+02     6.3863   3.4190    99.4785
 86      0.0000     0.0000E+00    0.0000E+00    1.015200E+08  0.00800  2.206E-03    0   0.7226   age116_m52            0.0000     4.5705E+02     8.0949   3.1486   104.0708
 87      0.0000     0.0000E+00    0.0000E+00    1.609000E+08  0.00800  1.596E-03    0   0.6963   age120_m52            0.0000     5.2374E+02     9.2975   2.8891   106.1435
 88      0.0000     0.0000E+00    0.0000E+00    2.861200E+08  0.00800  1.002E-03    0   0.6665   age125_m52            0.0000     7.0593E+02    12.4065   2.4744   110.0900
 89      0.0000     0.0000E+00    0.0000E+00    5.088000E+08  0.00800  5.759E-04    0   0.6377   age130_m52            0.0000     7.2012E+02    13.7074   2.0495   115.2472
 90      0.0000     0.0000E+00    0.0000E+00    9.047900E+08  0.00800  2.972E-04    0   0.6086   age135_m52            0.0000     3.9149E+02    12.4915   1.4982   114.5400
 91      0.0000     0.0000E+00    0.0000E+00    1.278050E+09  0.00800  2.242E-04    0   0.5907   age138_m52            0.0000     1.4183E+02     9.0415   0.9866   112.8126
 92      0.0000     0.0000E+00    0.0000E+00    1.434000E+09  0.00800  1.645E-04    0   0.5787   age139_m52            0.0000     1.2731E+02     8.1635   1.1661   111.8877
 93      0.0000     0.0000E+00    0.0000E+00    2.500000E+09  0.00800  7.723E-05    0   0.5519   age150_m52            0.0000     6.2419E+01     6.5333   0.8833   108.1216
 94      0.0000     0.0000E+00    0.0000E+00    4.250000E+09  0.00800  4.151E-05    0   0.5320   age158_m52            0.0000     5.3280E+01     6.0476   0.8345   105.4042
 95      0.0000     0.0000E+00    0.0000E+00    6.250000E+09  0.00800  3.010E-05    0   0.5197   age166_m52            0.0000     7.7874E+01     6.6867   0.6368   104.3081
 96      0.0000     0.0000E+00    0.0000E+00    7.500000E+09  0.00800  2.467E-05    0   0.5139   age171_m52            0.0000     8.8347E+01     6.9488   0.5916   103.9932
 97     22.8380     3.6024E+01    3.6080E+01    1.000000E+10  0.00800  1.862E-05    0   0.5054   age181_m52            0.0000     1.2514E+02     7.8591   0.4429   103.9541
 98     15.9433     3.2677E+01    3.2301E+01    1.300000E+10  0.00800  1.433E-05    0   0.4988   age193_m52            0.0000     1.7709E+02     8.6102   0.3416   104.8762
 99      4.7805     1.1287E+01    1.1040E+01    1.500000E+10  0.00800  1.244E-05    0   0.4936   age201_m52            0.0000     2.0135E+02     8.8769   0.3117   105.4277
100      0.2087     5.7283E-01    5.5488E-01    1.800000E+10  0.00800  1.070E-05    0   0.4888   age213_m52            0.0000     2.1701E+02     9.1662   0.2709   105.3808
101      0.0000     0.0000E+00    0.0000E+00    1.000000E+06  0.02000  1.989E-02    0   1.0000   age020_m62            0.0000     9.6323E+02    30.6391   4.0000    80.4023
102      0.0000     0.0000E+00    0.0000E+00    3.160000E+06  0.02000  3.772E-02    0   0.9858   age045_m62            0.0000     7.9426E+02    27.2495   4.0000    82.7548
103      0.0000     0.0000E+00    0.0000E+00    5.010000E+06  0.02000  3.227E-02    0   0.9342   age055_m62            0.0000     2.4845E+02    12.7111   4.0000    90.3002
104      0.0000     0.0000E+00    0.0000E+00    6.610000E+06  0.02000  2.387E-02    0   0.9090   age061_m62            0.0000     2.1568E+02     9.0299   4.0000    88.6491
105      0.0000     0.0000E+00    0.0000E+00    8.710000E+06  0.02000  1.102E-02    0   0.8861   age067_m62            0.0000     4.1569E+02    15.4621   3.9224    82.4781
106      0.0000     0.0000E+00    0.0000E+00    1.000000E+07  0.02000  1.011E-02    0   0.8751   age070_m62            0.0000     2.9249E+02    12.8123   3.9114    85.2602
107      0.0000     0.0000E+00    0.0000E+00    1.445000E+07  0.02000  7.331E-03    0   0.8472   age078_m62            0.0000     2.1689E+02    10.6485   3.8995    87.1032
108      0.0000     0.0000E+00    0.0000E+00    2.512000E+07  0.02000  4.206E-03    0   0.8099   age090_m62            0.0000     2.3039E+02    10.5498   3.8063    86.7145
109      0.0000     0.0000E+00    0.0000E+00    4.000000E+07  0.02000  3.373E-03    0   0.7799   age104_m62            0.0000     1.7363E+02     6.3828   3.4893    95.5704
110      0.0000     0.0000E+00    0.0000E+00    5.500000E+07  0.02000  2.747E-03    0   0.7595   age110_m62            0.0000     2.5931E+02     6.1740   3.3541    99.1839
111      0.0000     0.0000E+00    0.0000E+00    1.015200E+08  0.02000  1.878E-03    0   0.7221   age116_m62            0.0000     5.0547E+02     8.7328   3.1102   104.4702
112      0.0000     0.0000E+00    0.0000E+00    1.609000E+08  0.02000  1.378E-03    0   0.6978   age120_m62            0.0000     6.7606E+02    11.1024   2.8781   107.6516
113      0.0000     0.0000E+00    0.0000E+00    2.861200E+08  0.02000  8.869E-04    0   0.6700   age125_m62            0.0000     9.4389E+02    14.3721   2.3880   113.1278
114      0.0000     0.0000E+00    0.0000E+00    5.088000E+08  0.02000  4.834E-04    0   0.6430   age130_m62            0.0000     7.9010E+02    15.1151   1.8618   117.1269
115      0.0000     0.0000E+00    0.0000E+00    9.047900E+08  0.02000  2.312E-04    0   0.6152   age135_m62            0.0000     3.5483E+02    11.7701   1.3282   116.2708
116      0.0000     0.0000E+00    0.0000E+00    1.278050E+09  0.02000  1.387E-04    0   0.5927   age138_m62            0.0000     1.3235E+02     8.3062   1.0400   111.7582
117      0.0000     0.0000E+00    0.0000E+00    1.434000E+09  0.02000  1.168E-04    0   0.5865   age139_m62            0.0000     1.0302E+02     7.6568   1.0323   110.1220
118      0.0000     0.0000E+00    0.0000E+00    2.500000E+09  0.02000  5.505E-05    0   0.5610   age150_m62            0.0000     7.5489E+01     7.3802   0.6818   107.4813
119      0.0000     0.0000E+00    0.0000E+00    4.250000E+09  0.02000  3.070E-05    0   0.5407   age158_m62            0.0000     1.4719E+02     9.2062   0.3466   108.1955
120      0.0153     2.1310E-02    2.2285E-02    6.250000E+09  0.02000  2.104E-05    0   0.5277   age166_m62            0.0000     2.0867E+02    10.0971   0.1979   109.0036
121      0.0000     0.0000E+00    0.0000E+00    7.500000E+09  0.02000  1.770E-05    0   0.5223   age171_m62            0.0000     2.4005E+02    10.6708   0.0938   109.6755
122      0.1126     2.5490E-01    2.5868E-01    1.000000E+10  0.02000  1.297E-05    0   0.5121   age181_m62            0.0000     3.1442E+02    11.7897  -0.0946   110.7221
123      0.0000     0.0000E+00    0.0000E+00    1.300000E+10  0.02000  9.691E-06    0   0.5047   age193_m62            0.0000     3.7045E+02    12.5052  -0.1954   111.3960
124      0.0080     2.8038E-02    2.7776E-02    1.500000E+10  0.02000  8.360E-06    0   0.4999   age201_m62            0.0000     4.1676E+02    13.1721  -0.2868   112.0079
125      0.0000     0.0000E+00    0.0000E+00    1.800000E+10  0.02000  6.911E-06    0   0.4946   age213_m62            0.0000     4.7324E+02    14.0609  -0.3922   112.8203
126      0.0000     0.0000E+00    0.0000E+00    1.000000E+06  0.05000  2.651E-02    0   0.9998   age020_m72            0.0000     9.3128E+02    30.2857   4.0000    81.5127
127      0.0000     0.0000E+00    0.0000E+00    3.160000E+06  0.05000  4.817E-02    0   0.9577   age045_m72            0.0000     5.7263E+02    22.7930   4.0000    86.5511
128      0.0000     0.0000E+00    0.0000E+00    5.010000E+06  0.05000  3.101E-02    0   0.9147   age055_m72            0.0000     3.2784E+02    13.6430   4.0000    88.7889
129      0.0000     0.0000E+00    0.0000E+00    6.610000E+06  0.05000  1.472E-02    0   0.8877   age061_m72            0.0000     3.5055E+02    12.2290   4.0000    85.0633
130      0.0000     0.0000E+00    0.0000E+00    8.710000E+06  0.05000  1.050E-02    0   0.8638   age067_m72            0.0000     3.7667E+02    13.2085   4.0000    87.1927
131      0.0000     0.0000E+00    0.0000E+00    1.000000E+07  0.05000  8.954E-03    0   0.8524   age070_m72            0.0000     4.5808E+02    19.2277   4.0000    88.1651
132      0.0000     0.0000E+00    0.0000E+00    1.445000E+07  0.05000  6.392E-03    0   0.8262   age078_m72            0.0000     3.8672E+02    17.4743   4.0000    89.3478
133      0.0000     0.0000E+00    0.0000E+00    2.512000E+07  0.05000  4.207E-03    0   0.7902   age090_m72            0.0000     1.7656E+02     7.4731   4.0000    92.9423
134      0.0000     0.0000E+00    0.0000E+00    4.000000E+07  0.05000  3.198E-03    0   0.7618   age104_m72            0.0000     3.3302E+02     6.1300   3.5514   100.3599
135      0.0000     0.0000E+00    0.0000E+00    5.500000E+07  0.05000  2.593E-03    0   0.7432   age110_m72            0.0000     4.2280E+02     7.3721   3.4249   102.1232
136      0.0000     0.0000E+00    0.0000E+00    1.015200E+08  0.05000  1.716E-03    0   0.7092   age116_m72            0.0000     5.9144E+02     9.6016   3.1705   104.9281
137      0.0000     0.0000E+00    0.0000E+00    1.609000E+08  0.05000  1.218E-03    0   0.6876   age120_m72            0.0000     7.6949E+02    11.7143   2.8242   108.5335
138      0.0000     0.0000E+00    0.0000E+00    2.861200E+08  0.05000  7.047E-04    0   0.6618   age125_m72            0.0000     8.9613E+02    14.3154   2.1523   114.3203
139      0.0000     0.0000E+00    0.0000E+00    5.088000E+08  0.05000  3.590E-04    0   0.6356   age130_m72            0.0000     6.5740E+02    14.6777   1.5013   118.3274
140      0.0000     0.0000E+00    0.0000E+00    9.047900E+08  0.05000  1.484E-04    0   0.6088   age135_m72            0.0000     1.7717E+02    10.3949   0.8664   111.7621
141      0.0000     0.0000E+00    0.0000E+00    1.278050E+09  0.05000  9.435E-05    0   0.5924   age138_m72            0.0000     1.3251E+02    10.0068   0.4822   109.4786
142      0.0001     4.9918E-05    5.7841E-05    1.434000E+09  0.05000  7.827E-05    0   0.5847   age139_m72            0.0000     1.2407E+02     9.4620   0.5220   108.6362
143      2.1145     1.6522E+00    1.8279E+00    2.500000E+09  0.05000  3.759E-05    0   0.5583   age150_m72            0.0000     1.9171E+02    10.1544   0.2069   108.2475
144      1.6957     2.7037E+00    2.8794E+00    4.250000E+09  0.05000  1.842E-05    0   0.5374   age158_m72            0.0000     2.8407E+02    11.6251  -0.1427   108.4230
145      1.5655     3.8094E+00    3.9573E+00    6.250000E+09  0.05000  1.207E-05    0   0.5242   age166_m72            0.0000     3.7784E+02    13.4602  -0.4454   109.2448
146      0.6824     2.0057E+00    2.0601E+00    7.500000E+09  0.05000  9.993E-06    0   0.5183   age171_m72            0.0000     3.8832E+02    13.7705  -0.5025   109.4247
147      0.2935     1.1824E+00    1.1906E+00    1.000000E+10  0.05000  7.291E-06    0   0.5081   age181_m72            0.0000     4.5469E+02    15.3243  -0.6950   110.3660
148      0.0003     1.7387E-03    1.7290E-03    1.300000E+10  0.05000  5.316E-06    0   0.5018   age193_m72            0.0000     5.6137E+02    17.6359  -0.9957   111.9929
149      0.0085     5.5275E-02    5.4462E-02    1.500000E+10  0.05000  4.497E-06    0   0.4972   age201_m72            0.0000     6.2213E+02    17.3739  -1.0000   112.2938
150      0.2308     1.8126E+00    1.7687E+00    1.800000E+10  0.05000  3.739E-06    0   0.4924   age213_m72            0.0000     7.1918E+02    16.9260  -1.0000   112.2916


## Synthesis Results - Average & Chains ##

# j      x_j: min, <> & last-chain-values for 1 ...  7 chains
  1      0.0000      0.0067      0.0000      0.0000      0.0000      0.0000      0.0000      0.0000      0.0000
  2     28.5634     25.7859     26.5989     26.5946     27.6801     26.3129     27.1283     26.9080     27.0635
  3      0.4446      0.0262      0.0000      0.0000      0.2133      0.0000      0.0681      0.0000      0.0000
  4      0.0000      0.0083      0.0007      0.0000      0.0000      0.0000      0.0655      0.0000      0.0000
  5      0.0000      0.0111      0.0000      0.0000      0.0293      0.0498      0.0000      0.0000      0.0000
  6      0.0000      0.0087      0.0335      0.0000      0.0000      0.0000      0.0000      0.0000      0.1319
  7      0.0000      0.0113      0.0000      0.0000      0.0000      0.0000      0.0000      0.0000      0.0000
  8      0.0000      0.0305      0.0000      0.0000      0.0000      0.0314      0.0000      0.0433      0.0000
  9      5.0665      4.1933      4.2545      4.3184      4.1916      4.6609      4.3171      4.3922      4.3461
 10      0.0000      0.0428      0.1070      0.0144      0.0000      0.0000      0.0000      0.0000      0.0000
 11      0.0000      0.0552      0.0000      0.0517      0.0000      0.0000      0.0000      0.0000      0.0000
 12      0.0000      0.0277      0.0000      0.0000      0.0000      0.4070      0.0000      0.0000      0.0000
 13      0.0000      0.0119      0.0000      0.0000      0.0000      0.0000      0.0000      0.0000      0.0000
 14      0.0000      0.0086      0.0000      0.0000      0.0000      0.0000      0.0000      0.0000      0.0000
 15      0.0000      0.0088      0.0000      0.0032      0.0000      0.0000      0.0000      0.0000      0.0000
 16      0.0000      0.0167      0.0000      0.0000      0.0286      0.0000      0.0000      0.0000      0.0000
 17      0.0000      0.0157      0.0000      0.0640      0.0000      0.0000      0.0000      0.0000      0.0000
 18      0.0000      0.0240      0.0000      0.0083      0.0000      0.0321      0.0000      0.0000      0.0000
 19      0.0000      0.0396      0.0000      0.0362      0.0929      0.0000      0.0188      0.0000      0.0000
 20      0.0000      0.0756      0.0000      0.3211      0.1287      0.0000      0.3039      0.0123      0.0000
 21      0.0000      0.1003      0.2749      0.0000      0.0000      0.0000      0.2299      0.4673      0.3409
 22      0.0000      0.1071      0.0473      0.0827      0.0000      0.0000      0.0794      0.2706      0.0000
 23      0.0000      0.1185      0.0000      0.0000      0.0000      0.0000      0.0124      0.3262      0.0000
 24      0.0010      0.1257      0.0000      0.0000      0.6500      0.3448      0.0000      0.0158      0.2252
 25      0.0027      0.1358      0.0000      0.0517      0.1977      0.0000      0.0000      0.2803      0.1375
 26      0.0000      0.0147      0.0000      0.0000      0.0000      0.0000      0.0000      0.0233      0.0000
 27      0.0000      0.0417      0.0000      0.0066      0.0000      0.0000      0.0000      0.0000      0.0000
 28      0.0000      0.0106      0.0000      0.0000      0.0000      0.0000      0.0000      0.0000      0.0000
 29      0.0000      0.0121      0.0000      0.0000      0.0000      0.0000      0.0000      0.0000      0.0000
 30      0.0000      0.0112      0.0000      0.0000      0.0000      0.1034      0.0000      0.0000      0.0000
 31      0.0000      0.0098      0.0000      0.0000      0.0000      0.0000      0.0000      0.0000      0.0000
 32      0.0000      0.0292      0.0000      0.0000      0.0000      0.0000      0.0000      0.0068      0.0000
 33      0.0000      0.0461      0.0000      0.0798      0.0048      0.1779      0.1181      0.0000      0.0000
 34      0.0000      0.0586      0.0000      0.0000      0.0000      0.0000      0.0000      0.1073      0.0000
 35      0.0000      0.0667      0.0000      0.0459      0.0300      0.0000      0.1248      0.0000      0.0668
 36      0.0000      0.0367      0.0201      0.0000      0.0000      0.0000      0.0000      0.3275      0.0936
 37      0.0000      0.0239      0.0000      0.0000      0.0000      0.0000      0.0000      0.0000      0.0000
 38      0.0000      0.0111      0.0264      0.0000      0.0000      0.0000      0.0000      0.0000      0.0000
 39      0.0000      0.0114      0.0000      0.0000      0.0000      0.0000      0.0403      0.0000      0.0000
 40      0.0000      0.0118      0.0346      0.0000      0.0000      0.0000      0.0000      0.0000      0.0000
 41      0.0000      0.0218      0.0000      0.0000      0.0000      0.0000      0.0911      0.0000      0.0000
 42      0.0000      0.0244      0.0207      0.0000      0.0000      0.0081      0.0000      0.0000      0.0000
 43      0.0000      0.0336      0.0601      0.0000      0.0371      0.0000      0.0000      0.0000      0.0707
 44      0.0000      0.0888      0.0000      0.0000      0.0000      0.0000      0.2959      0.0349      0.0000
 45      9.4088      8.8366      9.0530      8.9535      9.2232      9.5348      8.5564      9.6561      9.4092
 46      2.6947      1.4946      1.6995      1.7898      1.3880      1.4764      2.2891      0.8592      1.7508
 47      0.0000      0.4730      0.3670      0.1529      0.1249      0.4092      0.0222      0.3086      0.0000
 48      0.0000      0.1624      0.2075      0.2045      0.0000      0.0528      0.0000      0.0000      0.0000
 49      0.0000      0.1177      0.0000      0.0000      0.0000      0.0000      0.0272      0.0000      0.0000
 50      0.0034      0.1161      0.2624      0.2017      0.2639      0.2446      0.1380      0.0000      0.0000
 51      0.0000      0.0126      0.0000      0.0000      0.0266      0.0000      0.0000      0.0000      0.0000
 52      0.0000      0.0643      0.3227      0.0000      0.0517      0.2214      0.0000      0.1657      0.0000
 53      0.0000      0.0555      0.0000      0.0000      0.1477      0.0616      0.0636      0.0000      0.0000
 54      2.2032      3.4109      3.4398      3.8826      2.9504      3.0637      3.3811      2.7911      3.2165
 55      1.0740      1.4158      1.5419      1.3912      1.2289      1.5743      1.3066      1.4997      1.3543
 56      0.0000      0.0425      0.0000      0.0000      0.0000      0.0000      0.0000      0.0000      0.0000
 57      0.0000      0.0299      0.0000      0.0000      0.0000      0.0000      0.0000      0.0000      0.0837
 58      0.0000      0.0394      0.0000      0.0000      0.0000      0.0000      0.0000      0.0985      0.0000
 59      0.0000      0.0222      0.0380      0.0000      0.0000      0.0000      0.0000      0.0000      0.0000
 60      0.0000      0.0288      0.0000      0.0000      0.0000      0.0000      0.0000      0.0000      0.0000
 61      0.0000      0.0197      0.0000      0.0208      0.0388      0.0000      0.0000      0.0000      0.0660
 62      0.0000      0.0369      0.0274      0.0000      0.0247      0.0249      0.0000      0.0190      0.0000
 63      0.0000      0.0138      0.0000      0.0000      0.0009      0.0000      0.0000      0.0000      0.0000
 64      0.0000      0.0156      0.0000      0.0000      0.0000      0.0000      0.1317      0.0000      0.0000
 65      0.0000      0.0205      0.0413      0.2523      0.0000      0.0000      0.0000      0.0000      0.0000
 66      0.0000      0.0228      0.0000      0.1130      0.0000      0.0732      0.0000      0.0000      0.0000
 67      0.0000      0.0245      0.0000      0.0000      0.0000      0.1887      0.0000      0.0000      0.0000
 68      0.0000      0.0663      0.1520      0.0000      0.0000      0.0000      0.0000      0.0000      0.0000
 69      0.0000      0.0784      0.0000      0.0000      0.0000      0.0000      0.0000      0.1303      0.0161
 70      0.0000      0.0816      0.0000      0.0000      0.1348      0.0000      0.1566      0.0095      0.0000
 71      0.0000      0.0726      0.0709      0.0441      0.0000      0.0000      0.0000      0.0000      0.0000
 72      0.0000      0.0700      0.0244      0.0000      0.1027      0.1776      0.0000      0.0000      0.1750
 73      0.0000      0.0413      0.0000      0.0000      0.0000      0.0173      0.0000      0.0000      0.0000
 74      0.0000      0.0375      0.0000      0.0000      0.0842      0.0000      0.0000      0.0409      0.0000
 75      0.0000      0.0419      0.0319      0.0000      0.0000      0.0000      0.0000      0.0000      0.0000
 76      0.0000      0.0100      0.0000      0.0360      0.0000      0.0000      0.0000      0.0106      0.0302
 77      0.0000      0.0079      0.0000      0.0000      0.0000      0.0000      0.0431      0.0000      0.0000
 78      0.0000      0.0110      0.0000      0.0000      0.0011      0.0000      0.0000      0.0000      0.0033
 79      0.0000      0.0284      0.0000      0.0000      0.0000      0.0000      0.0000      0.0000      0.0000
 80      0.0000      0.0147      0.0000      0.0000      0.0000      0.0000      0.0318      0.0000      0.0000
 81      0.0000      0.0179      0.0000      0.0000      0.0000      0.0000      0.0000      0.1641      0.0000
 82      0.0000      0.0167      0.0000      0.0000      0.0000      0.0022      0.0000      0.0000      0.0000
 83      0.0000      0.0390      0.0000      0.0000      0.0694      0.0000      0.0713      0.0000      0.0000
 84      0.0000      0.0229      0.0000      0.0000      0.0000      0.0000      0.0000      0.0000      0.0000
 85      0.0000      0.0206      0.0000      0.0000      0.0000      0.0000      0.0000      0.0000      0.0000
 86      0.0000      0.0292      0.0000      0.0000      0.0000      0.0136      0.0000      0.0000      0.0443
 87      0.0000      0.0226      0.0000      0.0000      0.0000      0.0000      0.0000      0.0000      0.2295
 88      0.0000      0.0132      0.0000      0.0307      0.0000      0.0000      0.0000      0.0000      0.0000
 89      0.0000      0.0153      0.0000      0.0000      0.0000      0.0000      0.0000      0.1257      0.0000
 90      0.0000      0.0108      0.0000      0.0000      0.0000      0.0000      0.0000      0.0071      0.0000
 91      0.0000      0.0191      0.0000      0.0000      0.0000      0.0000      0.0000      0.0000      0.0000
 92      0.0000      0.0249      0.0000      0.0000      0.0000      0.0000      0.0062      0.0000      0.0206
 93      0.0000      0.0876      0.0865      0.0059      0.0000      0.0079      0.0000      0.0156      0.0000
 94      0.0000      0.1285      0.0000      0.0000      0.1228      0.0000      0.0000      0.0000      0.0000
 95      0.0000      0.1782      0.0000      0.2223      0.0000      0.0384      0.0000      0.3051      0.0000
 96      0.0000      0.1613      0.2087      0.0000      0.0000      0.0000      0.8044      0.0000      0.0977
 97     22.8380     24.0149     23.4845     24.7715     24.4054     24.2390     23.8613     24.4583     24.2722
 98     15.9433     15.4652     15.8849     15.8598     15.3074     15.6818     15.6824     15.0770     15.7057
 99      4.7805      4.9182      5.1043      4.9693      4.7000      5.0204      4.9883      4.8702      4.8706
100      0.2087      1.5172      1.1608      1.0154      0.6446      1.4128      1.2383      1.5967      1.5808
101      0.0000      0.0115      0.0000      0.0000      0.0000      0.0000      0.0000      0.0000      0.0000
102      0.0000      0.0079      0.0000      0.0000      0.0000      0.0313      0.0000      0.1645      0.0000
103      0.0000      0.0439      0.0000      0.0000      0.0000      0.0000      0.0000      0.0000      0.0125
104      0.0000      0.0335      0.0000      0.0000      0.0000      0.0000      0.0000      0.0000      0.0000
105      0.0000      0.0218      0.0000      0.0000      0.0000      0.0000      0.0000      0.0000      0.0000
106      0.0000      0.0333      0.0000      0.0538      0.0858      0.0000      0.0000      0.0019      0.0000
107      0.0000      0.0329      0.0000      0.0468      0.0000      0.0000      0.0000      0.1115      0.0000
108      0.0000      0.0119      0.0000      0.0548      0.0000      0.0000      0.0000      0.0000      0.1564
109      0.0000      0.0208      0.0000      0.0000      0.0000      0.0000      0.0275      0.0000      0.0000
110      0.0000      0.0157      0.0000      0.0000      0.0000      0.0000      0.0000      0.0000      0.0000
111      0.0000      0.0164      0.0000      0.0000      0.0000      0.0000      0.1073      0.0000      0.0000
112      0.0000      0.0123      0.1023      0.0000      0.0000      0.0000      0.0000      0.0000      0.2085
113      0.0000      0.0089      0.0721      0.0000      0.0000      0.0000      0.0000      0.0000      0.0000
114      0.0000      0.0087      0.0000      0.0000      0.0000      0.0000      0.0000      0.0000      0.0000
115      0.0000      0.0109      0.0000      0.0000      0.0000      0.0000      0.0000      0.0000      0.0000
116      0.0000      0.0310      0.0000      0.0000      0.0000      0.0000      0.0000      0.0000      0.0546
117      0.0000      0.0343      0.0000      0.0128      0.0000      0.0000      0.0000      0.0295      0.0000
118      0.0000      0.0853      0.0000      0.0000      0.0000      0.0000      0.0000      0.0114      0.0227
119      0.0000      0.1019      0.0227      0.0000      0.0736      0.2685      0.1515      0.0000      0.1365
120      0.0153      0.1037      0.3215      0.2999      0.3029      0.0000      0.0607      0.0000      0.0368
121      0.0000      0.0890      0.1945      0.1358      0.0537      0.1460      0.0000      0.0000      0.0000
122      0.1126      0.0862      0.3617      0.0000      0.2466      0.0000      0.0000      0.0000      0.1881
123      0.0000      0.0362      0.0574      0.0000      0.0000      0.0000      0.1523      0.0049      0.0000
124      0.0080      0.0589      0.0490      0.0000      0.4358      0.0000      0.0000      0.1716      0.0988
125      0.0000      0.0538      0.0000      0.0000      0.0510      0.3362      0.1111      0.1211      0.0000
126      0.0000      0.0072      0.0000      0.0000      0.0000      0.0000      0.0000      0.0000      0.0140
127      0.0000      0.0208      0.0000      0.0000      0.1958      0.0000      0.0767      0.0000      0.0000
128      0.0000      0.0150      0.0000      0.0000      0.0000      0.0000      0.0041      0.0000      0.0000
129      0.0000      0.0225      0.0000      0.0369      0.0000      0.0000      0.0000      0.0000      0.0000
130      0.0000      0.0219      0.0134      0.0000      0.0000      0.0000      0.0013      0.0000      0.0691
131      0.0000      0.0118      0.1324      0.0000      0.0000      0.0000      0.0077      0.0118      0.0000
132      0.0000      0.0143      0.0000      0.1339      0.0000      0.0000      0.0000      0.0000      0.0000
133      0.0000      0.0146      0.1284      0.0000      0.0000      0.0000      0.0000      0.0000      0.0000
134      0.0000      0.0185      0.2416      0.0000      0.0000      0.0000      0.0000      0.0000      0.0000
135      0.0000      0.0155      0.0000      0.0204      0.0000      0.0486      0.0000      0.0000      0.0055
136      0.0000      0.0186      0.0000      0.0000      0.0000      0.0000      0.0000      0.0000      0.0000
137      0.0000      0.0130      0.0000      0.0000      0.0000      0.0000      0.0000      0.0000      0.0000
138      0.0000      0.0095      0.0000      0.0325      0.1363      0.0000      0.0000      0.0000      0.0000
139      0.0000      0.0120      0.0000      0.0000      0.0000      0.0000      0.0000      0.0000      0.0258
140      0.0000      0.0251      0.0000      0.0000      0.0000      0.0000      0.0000      0.0000      0.0119
141      0.0000      0.0570      0.0000      0.0000      0.0000      0.0000      0.0000      0.0000      0.0000
142      0.0001      0.0772      0.0207      0.0000      0.2488      0.0344      0.0000      0.0000      0.0000
143      2.1145      0.2970      0.0000      0.3697      0.3694      0.4829      0.2515      0.5057      0.3629
144      1.6957      0.2860      0.5757      0.4973      0.5319      0.2435      0.3302      0.4728      0.4128
145      1.5655      0.4327      0.6312      0.4207      0.5969      0.3107      0.4018      0.3992      0.4838
146      0.6824      0.4281      0.4939      0.3472      0.5523      0.6315      0.5005      0.5779      0.4557
147      0.2935      0.5332      0.5727      0.5017      0.5926      0.5197      0.6083      0.5661      0.5912
148      0.0003      0.4503      0.2241      0.4815      0.4380      0.5836      0.4064      0.5082      0.5410
149      0.0085      0.4203      0.7194      0.4160      0.4822      0.3106      0.6340      0.3171      0.4776
150      0.2308      0.4575      0.3847      0.5282      0.2451      0.3594      0.4485      0.5710      0.2180

# j      m_j: min, <> & last-chain-values for 1 ...  7 chains
  1  0.0000E+00  4.4440E-05  0.0000E+00  0.0000E+00  0.0000E+00  0.0000E+00  0.0000E+00  0.0000E+00  0.0000E+00
  2  3.4934E-02  2.9397E-02  3.0108E-02  3.0358E-02  3.1860E-02  2.9914E-02  3.0710E-02  3.0451E-02  3.1025E-02
  3  1.2834E-03  7.0531E-05  0.0000E+00  0.0000E+00  5.7942E-04  0.0000E+00  1.8198E-04  0.0000E+00  0.0000E+00
  4  0.0000E+00  4.2145E-05  3.5769E-06  0.0000E+00  0.0000E+00  0.0000E+00  3.2908E-04  0.0000E+00  0.0000E+00
  5  0.0000E+00  7.0782E-05  0.0000E+00  0.0000E+00  1.8846E-04  3.1642E-04  0.0000E+00  0.0000E+00  0.0000E+00
  6  0.0000E+00  6.5726E-05  2.5192E-04  0.0000E+00  0.0000E+00  0.0000E+00  0.0000E+00  0.0000E+00  1.0049E-03
  7  0.0000E+00  1.0823E-04  0.0000E+00  0.0000E+00  0.0000E+00  0.0000E+00  0.0000E+00  0.0000E+00  0.0000E+00
  8  0.0000E+00  3.2972E-04  0.0000E+00  0.0000E+00  0.0000E+00  3.3848E-04  0.0000E+00  4.6450E-04  0.0000E+00
  9  6.3190E-02  4.8751E-02  4.9110E-02  5.0270E-02  4.9200E-02  5.4037E-02  4.9837E-02  5.0688E-02  5.0809E-02
 10  0.0000E+00  5.6976E-04  1.4163E-03  1.9204E-04  0.0000E+00  0.0000E+00  0.0000E+00  0.0000E+00  0.0000E+00
 11  0.0000E+00  8.7973E-04  0.0000E+00  8.2502E-04  0.0000E+00  0.0000E+00  0.0000E+00  0.0000E+00  0.0000E+00
 12  0.0000E+00  7.7089E-04  0.0000E+00  0.0000E+00  0.0000E+00  1.1311E-02  0.0000E+00  0.0000E+00  0.0000E+00
 13  0.0000E+00  3.8482E-04  0.0000E+00  0.0000E+00  0.0000E+00  0.0000E+00  0.0000E+00  0.0000E+00  0.0000E+00
 14  0.0000E+00  3.9730E-04  0.0000E+00  0.0000E+00  0.0000E+00  0.0000E+00  0.0000E+00  0.0000E+00  0.0000E+00
 15  0.0000E+00  6.1347E-04  0.0000E+00  2.2426E-04  0.0000E+00  0.0000E+00  0.0000E+00  0.0000E+00  0.0000E+00
 16  0.0000E+00  1.6777E-03  0.0000E+00  0.0000E+00  2.8959E-03  0.0000E+00  0.0000E+00  0.0000E+00  0.0000E+00
 17  0.0000E+00  1.7499E-03  0.0000E+00  7.1428E-03  0.0000E+00  0.0000E+00  0.0000E+00  0.0000E+00  0.0000E+00
 18  0.0000E+00  4.3525E-03  0.0000E+00  1.5114E-03  0.0000E+00  5.8220E-03  0.0000E+00  0.0000E+00  0.0000E+00
 19  0.0000E+00  1.0909E-02  0.0000E+00  9.9804E-03  2.5811E-02  0.0000E+00  5.1526E-03  0.0000E+00  0.0000E+00
 20  0.0000E+00  2.9772E-02  0.0000E+00  1.2659E-01  5.1168E-02  0.0000E+00  1.1880E-01  4.7916E-03  0.0000E+00
 21  0.0000E+00  4.5686E-02  1.2435E-01  0.0000E+00  0.0000E+00  0.0000E+00  1.0398E-01  2.1130E-01  1.5616E-01
 22  0.0000E+00  6.2970E-02  2.7583E-02  4.8637E-02  0.0000E+00  0.0000E+00  4.6313E-02  1.5785E-01  0.0000E+00
 23  0.0000E+00  8.8287E-02  0.0000E+00  0.0000E+00  0.0000E+00  0.0000E+00  9.1475E-03  2.4122E-01  0.0000E+00
 24  9.5810E-04  1.0713E-01  0.0000E+00  0.0000E+00  5.5911E-01  2.9291E-01  0.0000E+00  1.3356E-02  1.9297E-01
 25  2.9258E-03  1.3897E-01  0.0000E+00  5.3013E-02  2.0428E-01  0.0000E+00  0.0000E+00  2.8473E-01  1.4147E-01
 26  0.0000E+00  9.4550E-05  0.0000E+00  0.0000E+00  0.0000E+00  0.0000E+00  0.0000E+00  1.4805E-04  0.0000E+00
 27  0.0000E+00  5.6963E-05  0.0000E+00  9.0037E-06  0.0000E+00  0.0000E+00  0.0000E+00  0.0000E+00  0.0000E+00
 28  0.0000E+00  2.8455E-05  0.0000E+00  0.0000E+00  0.0000E+00  0.0000E+00  0.0000E+00  0.0000E+00  0.0000E+00
 29  0.0000E+00  5.0363E-05  0.0000E+00  0.0000E+00  0.0000E+00  0.0000E+00  0.0000E+00  0.0000E+00  0.0000E+00
 30  0.0000E+00  5.8062E-05  0.0000E+00  0.0000E+00  0.0000E+00  5.3379E-04  0.0000E+00  0.0000E+00  0.0000E+00
 31  0.0000E+00  5.8370E-05  0.0000E+00  0.0000E+00  0.0000E+00  0.0000E+00  0.0000E+00  0.0000E+00  0.0000E+00
 32  0.0000E+00  1.9359E-04  0.0000E+00  0.0000E+00  0.0000E+00  0.0000E+00  0.0000E+00  4.4558E-05  0.0000E+00
 33  0.0000E+00  4.3399E-04  0.0000E+00  7.5239E-04  4.6072E-05  1.6701E-03  1.1034E-03  0.0000E+00  0.0000E+00
 34  0.0000E+00  6.6953E-04  0.0000E+00  0.0000E+00  0.0000E+00  0.0000E+00  0.0000E+00  1.2176E-03  0.0000E+00
 35  0.0000E+00  9.2094E-04  0.0000E+00  6.3451E-04  4.1806E-04  0.0000E+00  1.7117E-03  0.0000E+00  9.2775E-04
 36  0.0000E+00  6.5005E-04  3.5330E-04  0.0000E+00  0.0000E+00  0.0000E+00  0.0000E+00  5.7581E-03  1.6673E-03
 37  0.0000E+00  5.2496E-04  0.0000E+00  0.0000E+00  0.0000E+00  0.0000E+00  0.0000E+00  0.0000E+00  0.0000E+00
 38  0.0000E+00  3.3971E-04  8.0309E-04  0.0000E+00  0.0000E+00  0.0000E+00  0.0000E+00  0.0000E+00  0.0000E+00
 39  0.0000E+00  5.2289E-04  0.0000E+00  0.0000E+00  0.0000E+00  0.0000E+00  1.8310E-03  0.0000E+00  0.0000E+00
 40  0.0000E+00  9.4880E-04  2.7690E-03  0.0000E+00  0.0000E+00  0.0000E+00  0.0000E+00  0.0000E+00  0.0000E+00
 41  0.0000E+00  2.3524E-03  0.0000E+00  0.0000E+00  0.0000E+00  0.0000E+00  9.7824E-03  0.0000E+00  0.0000E+00
 42  0.0000E+00  2.9400E-03  2.4783E-03  0.0000E+00  0.0000E+00  9.7547E-04  0.0000E+00  0.0000E+00  0.0000E+00
 43  0.0000E+00  6.5924E-03  1.1713E-02  0.0000E+00  7.3632E-03  0.0000E+00  0.0000E+00  0.0000E+00  1.3969E-02
 44  0.0000E+00  2.7592E-02  0.0000E+00  0.0000E+00  0.0000E+00  0.0000E+00  9.1242E-02  1.0747E-02  0.0000E+00
 45  4.3693E+00  3.8251E+00  3.8909E+00  3.8807E+00  4.0309E+00  4.1159E+00  3.6778E+00  4.1492E+00  4.0957E+00
 46  1.4908E+00  7.7070E-01  8.7014E-01  9.2414E-01  7.2262E-01  7.5923E-01  1.1721E+00  4.3979E-01  9.0783E-01
 47  0.0000E+00  3.1968E-01  2.4624E-01  1.0346E-01  8.5205E-02  2.7578E-01  1.4889E-02  2.0704E-01  0.0000E+00
 48  0.0000E+00  1.3068E-01  1.6581E-01  1.6481E-01  0.0000E+00  4.2409E-02  0.0000E+00  0.0000E+00  0.0000E+00
 49  0.0000E+00  1.0597E-01  0.0000E+00  0.0000E+00  0.0000E+00  0.0000E+00  2.4314E-02  0.0000E+00  0.0000E+00
 50  3.9146E-03  1.2292E-01  2.7591E-01  2.1383E-01  2.8212E-01  2.5832E-01  1.4514E-01  0.0000E+00  0.0000E+00
 51  0.0000E+00  6.1512E-05  0.0000E+00  0.0000E+00  1.3103E-04  0.0000E+00  0.0000E+00  0.0000E+00  0.0000E+00
 52  0.0000E+00  8.5584E-05  4.2670E-04  0.0000E+00  6.9579E-05  2.9412E-04  0.0000E+00  2.1906E-04  0.0000E+00
 53  0.0000E+00  1.1273E-04  0.0000E+00  0.0000E+00  3.0295E-04  1.2477E-04  1.2830E-04  0.0000E+00  0.0000E+00
 54  4.5774E-03  6.6056E-03  6.6142E-03  7.5288E-03  5.7686E-03  5.9168E-03  6.5018E-03  5.3655E-03  6.2637E-03
 55  3.2914E-03  4.0448E-03  4.3735E-03  3.9794E-03  3.5446E-03  4.4850E-03  3.7063E-03  4.2530E-03  3.8905E-03
 56  0.0000E+00  1.6091E-04  0.0000E+00  0.0000E+00  0.0000E+00  0.0000E+00  0.0000E+00  0.0000E+00  0.0000E+00
 57  0.0000E+00  1.8120E-04  0.0000E+00  0.0000E+00  0.0000E+00  0.0000E+00  0.0000E+00  0.0000E+00  5.1032E-04
 58  0.0000E+00  3.4481E-04  0.0000E+00  0.0000E+00  0.0000E+00  0.0000E+00  0.0000E+00  8.5505E-04  0.0000E+00
 59  0.0000E+00  2.7032E-04  4.5812E-04  0.0000E+00  0.0000E+00  0.0000E+00  0.0000E+00  0.0000E+00  0.0000E+00
 60  0.0000E+00  3.8972E-04  0.0000E+00  0.0000E+00  0.0000E+00  0.0000E+00  0.0000E+00  0.0000E+00  0.0000E+00
 61  0.0000E+00  3.3891E-04  0.0000E+00  3.5983E-04  6.7583E-04  0.0000E+00  0.0000E+00  0.0000E+00  1.1434E-03
 62  0.0000E+00  8.0614E-04  5.9494E-04  0.0000E+00  5.4540E-04  5.4306E-04  0.0000E+00  4.1126E-04  0.0000E+00
 63  0.0000E+00  4.5725E-04  0.0000E+00  0.0000E+00  3.0125E-05  0.0000E+00  0.0000E+00  0.0000E+00  0.0000E+00
 64  0.0000E+00  8.5080E-04  0.0000E+00  0.0000E+00  0.0000E+00  0.0000E+00  7.1520E-03  0.0000E+00  0.0000E+00
 65  0.0000E+00  1.8989E-03  3.7949E-03  2.3352E-02  0.0000E+00  0.0000E+00  0.0000E+00  0.0000E+00  0.0000E+00
 66  0.0000E+00  2.7008E-03  0.0000E+00  1.3379E-02  0.0000E+00  8.6351E-03  0.0000E+00  0.0000E+00  0.0000E+00
 67  0.0000E+00  3.9725E-03  0.0000E+00  0.0000E+00  0.0000E+00  3.0555E-02  0.0000E+00  0.0000E+00  0.0000E+00
 68  0.0000E+00  2.0001E-02  4.5557E-02  0.0000E+00  0.0000E+00  0.0000E+00  0.0000E+00  0.0000E+00  0.0000E+00
 69  0.0000E+00  4.0828E-02  0.0000E+00  0.0000E+00  0.0000E+00  0.0000E+00  0.0000E+00  6.7323E-02  8.4054E-03
 70  0.0000E+00  5.9141E-02  0.0000E+00  0.0000E+00  9.8639E-02  0.0000E+00  1.1270E-01  6.8066E-03  0.0000E+00
 71  0.0000E+00  6.2068E-02  6.0195E-02  3.7754E-02  0.0000E+00  0.0000E+00  0.0000E+00  0.0000E+00  0.0000E+00
 72  0.0000E+00  7.8731E-02  2.7289E-02  0.0000E+00  1.1673E-01  1.9929E-01  0.0000E+00  0.0000E+00  1.9802E-01
 73  0.0000E+00  5.8661E-02  0.0000E+00  0.0000E+00  0.0000E+00  2.4445E-02  0.0000E+00  0.0000E+00  0.0000E+00
 74  0.0000E+00  5.9417E-02  0.0000E+00  0.0000E+00  1.3457E-01  0.0000E+00  0.0000E+00  6.4360E-02  0.0000E+00
 75  0.0000E+00  7.6294E-02  5.7616E-02  0.0000E+00  0.0000E+00  0.0000E+00  0.0000E+00  0.0000E+00  0.0000E+00
 76  0.0000E+00  4.2282E-05  0.0000E+00  1.5200E-04  0.0000E+00  0.0000E+00  0.0000E+00  4.4375E-05  1.2801E-04
 77  0.0000E+00  1.3639E-05  0.0000E+00  0.0000E+00  0.0000E+00  0.0000E+00  7.3503E-05  0.0000E+00  0.0000E+00
 78  0.0000E+00  2.1240E-05  0.0000E+00  0.0000E+00  2.2171E-06  0.0000E+00  0.0000E+00  0.0000E+00  6.3940E-06
 79  0.0000E+00  6.5644E-05  0.0000E+00  0.0000E+00  0.0000E+00  0.0000E+00  0.0000E+00  0.0000E+00  0.0000E+00
 80  0.0000E+00  4.3812E-05  0.0000E+00  0.0000E+00  0.0000E+00  0.0000E+00  9.4139E-05  0.0000E+00  0.0000E+00
 81  0.0000E+00  7.0378E-05  0.0000E+00  0.0000E+00  0.0000E+00  0.0000E+00  0.0000E+00  6.4223E-04  0.0000E+00
 82  0.0000E+00  8.8437E-05  0.0000E+00  0.0000E+00  0.0000E+00  1.1904E-05  0.0000E+00  0.0000E+00  0.0000E+00
 83  0.0000E+00  3.0395E-04  0.0000E+00  0.0000E+00  5.4679E-04  0.0000E+00  5.5203E-04  0.0000E+00  0.0000E+00
 84  0.0000E+00  2.4702E-04  0.0000E+00  0.0000E+00  0.0000E+00  0.0000E+00  0.0000E+00  0.0000E+00  0.0000E+00
 85  0.0000E+00  2.7028E-04  0.0000E+00  0.0000E+00  0.0000E+00  0.0000E+00  0.0000E+00  0.0000E+00  0.0000E+00
 86  0.0000E+00  5.1900E-04  0.0000E+00  0.0000E+00  0.0000E+00  2.4125E-04  0.0000E+00  0.0000E+00  7.9141E-04
 87  0.0000E+00  5.3569E-04  0.0000E+00  0.0000E+00  0.0000E+00  0.0000E+00  0.0000E+00  0.0000E+00  5.4618E-03
 88  0.0000E+00  4.7591E-04  0.0000E+00  1.1080E-03  0.0000E+00  0.0000E+00  0.0000E+00  0.0000E+00  0.0000E+00
 89  0.0000E+00  9.1865E-04  0.0000E+00  0.0000E+00  0.0000E+00  0.0000E+00  0.0000E+00  7.4971E-03  0.0000E+00
 90  0.0000E+00  1.2051E-03  0.0000E+00  0.0000E+00  0.0000E+00  0.0000E+00  0.0000E+00  7.8670E-04  0.0000E+00
 91  0.0000E+00  2.7322E-03  0.0000E+00  0.0000E+00  0.0000E+00  0.0000E+00  0.0000E+00  0.0000E+00  0.0000E+00
 92  0.0000E+00  4.7509E-03  0.0000E+00  0.0000E+00  0.0000E+00  0.0000E+00  1.1845E-03  0.0000E+00  3.9479E-03
 93  0.0000E+00  3.3976E-02  3.3298E-02  2.2834E-03  0.0000E+00  3.0629E-03  0.0000E+00  5.9911E-03  0.0000E+00
 94  0.0000E+00  8.9338E-02  0.0000E+00  0.0000E+00  8.6222E-02  0.0000E+00  0.0000E+00  0.0000E+00  0.0000E+00
 95  0.0000E+00  1.6696E-01  0.0000E+00  2.0851E-01  0.0000E+00  3.5830E-02  0.0000E+00  2.8366E-01  0.0000E+00
 96  0.0000E+00  1.8229E-01  2.3421E-01  0.0000E+00  0.0000E+00  0.0000E+00  9.0268E-01  0.0000E+00  1.1106E-01
 97  3.6080E+01  3.5365E+01  3.4338E+01  3.6526E+01  3.6286E+01  3.5596E+01  3.4891E+01  3.5753E+01  3.5943E+01
 98  3.2301E+01  2.9206E+01  2.9785E+01  2.9990E+01  2.9186E+01  2.9533E+01  2.9408E+01  2.8264E+01  2.9825E+01
 99  1.1040E+01  1.0587E+01  1.0910E+01  1.0711E+01  1.0215E+01  1.0778E+01  1.0663E+01  1.0407E+01  1.0543E+01
100  5.5488E-01  3.7604E+00  2.8566E+00  2.5199E+00  1.6130E+00  3.4919E+00  3.0475E+00  3.9284E+00  3.9398E+00
101  0.0000E+00  3.1294E-05  0.0000E+00  0.0000E+00  0.0000E+00  0.0000E+00  0.0000E+00  0.0000E+00  0.0000E+00
102  0.0000E+00  1.1241E-05  0.0000E+00  0.0000E+00  0.0000E+00  4.4284E-05  0.0000E+00  2.3160E-04  0.0000E+00
103  0.0000E+00  6.9016E-05  0.0000E+00  0.0000E+00  0.0000E+00  0.0000E+00  0.0000E+00  0.0000E+00  1.9789E-05
104  0.0000E+00  6.9254E-05  0.0000E+00  0.0000E+00  0.0000E+00  0.0000E+00  0.0000E+00  0.0000E+00  0.0000E+00
105  0.0000E+00  9.4991E-05  0.0000E+00  0.0000E+00  0.0000E+00  0.0000E+00  0.0000E+00  0.0000E+00  0.0000E+00
106  0.0000E+00  1.5619E-04  0.0000E+00  2.5274E-04  4.0657E-04  0.0000E+00  0.0000E+00  8.8340E-06  0.0000E+00
107  0.0000E+00  2.0619E-04  0.0000E+00  2.9355E-04  0.0000E+00  0.0000E+00  0.0000E+00  6.9398E-04  0.0000E+00
108  0.0000E+00  1.2403E-04  0.0000E+00  5.7292E-04  0.0000E+00  0.0000E+00  0.0000E+00  0.0000E+00  1.6434E-03
109  0.0000E+00  2.6040E-04  0.0000E+00  0.0000E+00  0.0000E+00  0.0000E+00  3.4200E-04  0.0000E+00  0.0000E+00
110  0.0000E+00  2.3504E-04  0.0000E+00  0.0000E+00  0.0000E+00  0.0000E+00  0.0000E+00  0.0000E+00  0.0000E+00
111  0.0000E+00  3.4167E-04  0.0000E+00  0.0000E+00  0.0000E+00  0.0000E+00  2.2220E-03  0.0000E+00  0.0000E+00
112  0.0000E+00  3.3776E-04  2.7912E-03  0.0000E+00  0.0000E+00  0.0000E+00  0.0000E+00  0.0000E+00  5.7592E-03
113  0.0000E+00  3.6277E-04  2.9344E-03  0.0000E+00  0.0000E+00  0.0000E+00  0.0000E+00  0.0000E+00  0.0000E+00
114  0.0000E+00  6.2987E-04  0.0000E+00  0.0000E+00  0.0000E+00  0.0000E+00  0.0000E+00  0.0000E+00  0.0000E+00
115  0.0000E+00  1.5724E-03  0.0000E+00  0.0000E+00  0.0000E+00  0.0000E+00  0.0000E+00  0.0000E+00  0.0000E+00
116  0.0000E+00  7.1919E-03  0.0000E+00  0.0000E+00  0.0000E+00  0.0000E+00  0.0000E+00  0.0000E+00  1.2737E-02
117  0.0000E+00  9.3418E-03  0.0000E+00  3.4993E-03  0.0000E+00  0.0000E+00  0.0000E+00  7.9817E-03  0.0000E+00
118  0.0000E+00  4.7160E-02  0.0000E+00  0.0000E+00  0.0000E+00  0.0000E+00  0.0000E+00  6.2479E-03  1.2641E-02
119  0.0000E+00  9.7400E-02  2.1515E-02  0.0000E+00  7.0969E-02  2.5582E-01  1.4377E-01  0.0000E+00  1.3113E-01
120  2.2285E-02  1.4105E-01  4.3442E-01  4.0865E-01  4.1617E-01  0.0000E+00  8.2003E-02  0.0000E+00  5.0387E-02
121  0.0000E+00  1.4245E-01  3.0909E-01  2.1777E-01  8.6816E-02  2.3314E-01  0.0000E+00  0.0000E+00  0.0000E+00
122  2.5868E-01  1.8468E-01  7.6937E-01  0.0000E+00  5.3331E-01  0.0000E+00  0.0000E+00  0.0000E+00  4.0522E-01
123  0.0000E+00  1.0216E-01  1.6090E-01  0.0000E+00  0.0000E+00  0.0000E+00  4.2722E-01  1.3690E-02  0.0000E+00
124  2.7776E-02  1.9096E-01  1.5777E-01  0.0000E+00  1.4275E+00  0.0000E+00  0.0000E+00  5.5256E-01  3.2231E-01
125  0.0000E+00  2.0895E-01  0.0000E+00  0.0000E+00  1.9988E-01  1.3019E+00  4.2846E-01  4.6692E-01  0.0000E+00
126  0.0000E+00  1.4754E-05  0.0000E+00  0.0000E+00  0.0000E+00  0.0000E+00  0.0000E+00  0.0000E+00  2.8774E-05
127  0.0000E+00  2.2444E-05  0.0000E+00  0.0000E+00  2.1325E-04  0.0000E+00  8.2107E-05  0.0000E+00  0.0000E+00
128  0.0000E+00  2.3962E-05  0.0000E+00  0.0000E+00  0.0000E+00  0.0000E+00  6.5884E-06  0.0000E+00  0.0000E+00
129  0.0000E+00  7.3599E-05  0.0000E+00  1.2074E-04  0.0000E+00  0.0000E+00  0.0000E+00  0.0000E+00  0.0000E+00
130  0.0000E+00  9.7848E-05  5.9421E-05  0.0000E+00  0.0000E+00  0.0000E+00  5.5774E-06  0.0000E+00  3.1031E-04
131  0.0000E+00  6.1071E-05  6.7903E-04  0.0000E+00  0.0000E+00  0.0000E+00  3.9715E-05  6.0686E-05  0.0000E+00
132  0.0000E+00  1.0028E-04  0.0000E+00  9.4012E-04  0.0000E+00  0.0000E+00  0.0000E+00  0.0000E+00  0.0000E+00
133  0.0000E+00  1.4900E-04  1.2995E-03  0.0000E+00  0.0000E+00  0.0000E+00  0.0000E+00  0.0000E+00  0.0000E+00
134  0.0000E+00  2.3883E-04  3.1000E-03  0.0000E+00  0.0000E+00  0.0000E+00  0.0000E+00  0.0000E+00  0.0000E+00
135  0.0000E+00  2.4070E-04  0.0000E+00  3.1752E-04  0.0000E+00  7.5368E-04  0.0000E+00  0.0000E+00  8.5324E-05
136  0.0000E+00  4.1640E-04  0.0000E+00  0.0000E+00  0.0000E+00  0.0000E+00  0.0000E+00  0.0000E+00  0.0000E+00
137  0.0000E+00  3.9803E-04  0.0000E+00  0.0000E+00  0.0000E+00  0.0000E+00  0.0000E+00  0.0000E+00  0.0000E+00
138  0.0000E+00  4.8166E-04  0.0000E+00  1.6590E-03  7.0100E-03  0.0000E+00  0.0000E+00  0.0000E+00  0.0000E+00
139  0.0000E+00  1.1572E-03  0.0000E+00  0.0000E+00  0.0000E+00  0.0000E+00  0.0000E+00  0.0000E+00  2.4938E-03
140  0.0000E+00  5.5828E-03  0.0000E+00  0.0000E+00  0.0000E+00  0.0000E+00  0.0000E+00  0.0000E+00  2.6696E-03
141  0.0000E+00  1.9412E-02  0.0000E+00  0.0000E+00  0.0000E+00  0.0000E+00  0.0000E+00  0.0000E+00  0.0000E+00
142  5.7841E-05  3.1289E-02  8.3296E-03  0.0000E+00  1.0183E-01  1.3908E-02  0.0000E+00  0.0000E+00  0.0000E+00
143  1.8279E+00  2.3933E-01  0.0000E+00  2.9826E-01  3.0051E-01  3.8805E-01  2.0123E-01  4.0451E-01  2.9409E-01
144  2.8794E+00  4.5267E-01  9.0482E-01  7.8813E-01  8.4995E-01  3.8436E-01  5.1905E-01  7.4287E-01  6.5699E-01
145  3.9573E+00  1.0194E+00  1.4767E+00  9.9246E-01  1.4201E+00  7.3008E-01  9.4016E-01  9.3379E-01  1.1463E+00
146  2.0601E+00  1.2048E+00  1.3798E+00  9.7837E-01  1.5690E+00  1.7721E+00  1.3985E+00  1.6143E+00  1.2894E+00
147  1.1906E+00  2.0159E+00  2.1498E+00  1.8993E+00  2.2622E+00  1.9595E+00  2.2837E+00  2.1246E+00  2.2478E+00
148  1.7290E-03  2.3061E+00  1.1393E+00  2.4691E+00  2.2645E+00  2.9806E+00  2.0664E+00  2.5836E+00  2.7860E+00
149  5.4462E-02  2.5209E+00  4.2847E+00  2.4989E+00  2.9203E+00  1.8580E+00  3.7760E+00  1.8884E+00  2.8811E+00
150  1.7687E+00  3.2691E+00  2.7288E+00  3.7787E+00  1.7683E+00  2.5609E+00  3.1821E+00  4.0500E+00  1.5665E+00

# AV, chi2 & Mass for <> & i_chain = 1 ...  7 solutions
AV       1.4030      1.4001      1.3976      1.3997      1.3995      1.3991      1.3997      1.3990      1.4023
chi2 2.2933E+00  2.3250E+00  2.3143E+00  2.3135E+00  2.3111E+00  2.3156E+00  2.3135E+00  2.3133E+00  2.3133E+00
Mass 8.0599E-10  8.6132E-10  8.6458E-10  8.5982E-10  8.5242E-10  8.6256E-10  8.6702E-10  8.6640E-10  8.5910E-10
   7.15                                  [v0_min (km/s) before EX0s...]
  58.97                                  [vd_min (km/s) before EX0s...]


## Synthetic spectrum (Best Model) ##l_obs f_obs f_syn wei
 3070    [Nl_obs]
 3359.00    0.00000   0.43715   -2.000
 3360.00    0.17953   0.41443   -1.000
 3361.00    0.19151   0.41351   -1.000
 3362.00    0.21467   0.43334   -1.000
 3363.00    0.24258   0.46226   -1.000
 3364.00    0.26243   0.48463   -1.000
 3365.00    0.28992   0.48998   -1.000
 3366.00    0.28761   0.47951   -1.000
 3367.00    0.29679   0.46255   -1.000
 3368.00    0.28894   0.44654   -1.000
 3369.00    0.26477   0.43565   -1.000
 3370.00    0.25721   0.42863   -1.000
 3371.00    0.24218   0.42436   -1.000
 3372.00    0.23721   0.42614   -1.000
 3373.00    0.25751   0.43887   -1.000
 3374.00    0.28444   0.46177   -1.000
 3375.00    0.28773   0.48750   -1.000
 3376.00    0.31256   0.50418   -1.000
 3377.00    0.34266   0.50313   -1.000
 3378.00    0.34259   0.48683   -1.000
 3379.00    0.34273   0.46897   -1.000
 3380.00    0.32491   0.46126   -1.000
 3381.00    0.32342   0.46633   -1.000
 3382.00    0.33885   0.47831   -1.000
 3383.00    0.32884   0.48966   -1.000
 3384.00    0.34916   0.49804   -1.000
 3385.00    0.34847   0.50480   -1.000
 3386.00    0.34322   0.50783   -1.000
 3387.00    0.34312   0.50690   -1.000
 3388.00    0.35421   0.50574   -1.000
 3389.00    0.34894   0.50609   -1.000
 3390.00    0.35364   0.50521   -1.000
 3391.00    0.35607   0.49894   -1.000
 3392.00    0.37014   0.48861   -1.000
 3393.00    0.35532   0.48305   -1.000
 3394.00    0.36173   0.48890   -1.000
 3395.00    0.37364   0.50369   -1.000
 3396.00    0.38482   0.52012   -1.000
 3397.00    0.38943   0.53397   -1.000
 3398.00    0.40973   0.54408   -1.000
 3399.00    0.44368   0.54724   -1.000
 3400.00    0.44867   0.54296   -1.000
 3401.00    0.44291   0.53390   -1.000
 3402.00    0.42803   0.52110   -1.000
 3403.00    0.42228   0.50966   -1.000
 3404.00    0.42788   0.50301   -1.000
 3405.00    0.42477   0.49967   -1.000
 3406.00    0.41307   0.49619   -1.000
 3407.00    0.42353   0.49221   -1.000
 3408.00    0.41172   0.49031   -1.000
 3409.00    0.39123   0.49275   -1.000
 3410.00    0.39948   0.49802   -1.000
 3411.00    0.42452   0.49888   -1.000
 3412.00    0.42153   0.49257   -1.000
 3413.00    0.42551   0.48289   -1.000
 3414.00    0.39271   0.47706   -1.000
 3415.00    0.38119   0.48087   -1.000
 3416.00    0.37897   0.49298   -1.000
 3417.00    0.41438   0.50966   -1.000
 3418.00    0.44919   0.52676   -1.000
 3419.00    0.44822   0.54078   -1.000
 3420.00    0.43411   0.54693   -1.000
 3421.00    0.44486   0.54207   -1.000
 3422.00    0.46381   0.52866   -1.000
 3423.00    0.44900   0.51731   -1.000
 3424.00    0.44229   0.51463   -1.000
 3425.00    0.46070   0.51756   -1.000
 3426.00    0.45779   0.52187   -1.000
 3427.00    0.45302   0.52878   -1.000
 3428.00    0.47060   0.54182   -1.000
 3429.00    0.47787   0.55720   -1.000
 3430.00    0.48535   0.56216   -1.000
 3431.00    0.49069   0.55159   -1.000
 3432.00    0.47530   0.53408   -1.000
 3433.00    0.46647   0.52307   -1.000
 3434.00    0.46349   0.52532   -1.000
 3435.00    0.47769   0.53359   -1.000
 3436.00    0.48460   0.53594   -1.000
 3437.00    0.44981   0.52814   -1.000
 3438.00    0.46167   0.51178   -1.000
 3439.00    0.45303   0.48812   79.428
 3440.00    0.40858   0.46253   -1.000
 3441.00    0.42168   0.44335   89.430
 3442.00    0.42073   0.43684   89.961
 3443.00    0.39693   0.44260   -1.000
 3444.00    0.40283   0.45473   -1.000
 3445.00    0.43742   0.46817   81.808
 3446.00    0.44180   0.48372   -1.000
 3447.00    0.47312   0.50197   74.423
 3448.00    0.46362   0.52115   -1.000
 3449.00    0.46173   0.53629   -1.000
 3450.00    0.48795   0.53869   -1.000
 3451.00    0.49147   0.52731   -1.000
 3452.00    0.49351   0.51389   -1.000
 3453.00    0.49562   0.50906   -1.000
 3454.00    0.48778   0.51358   -1.000
 3455.00    0.48665   0.51959   -1.000
 3456.00    0.48944   0.51846   -1.000
 3457.00    0.49570   0.50837   -1.000
 3458.00    0.48874   0.49369  586.268
 3459.00    0.47210   0.48096   81.200
 3460.00    0.47596   0.47343   73.116
 3461.00    0.47010   0.47493   72.795
 3462.00    0.48418   0.48817  339.667
 3463.00    0.49595   0.50648   -1.000
 3464.00    0.51369   0.51488  586.268
 3465.00    0.51129   0.51258  586.268
 3466.00    0.50929   0.51033  586.268
 3467.00    0.51008   0.51529  586.268
 3468.00    0.53581   0.52756   -1.000
 3469.00    0.53982   0.54046  586.268
 3470.00    0.53791   0.54522   -1.000
 3471.00    0.54199   0.53773  586.268
 3472.00    0.52422   0.52174  586.268
 3473.00    0.50919   0.50116   -1.000
 3474.00    0.51650   0.48028   -1.000
 3475.00    0.48754   0.46502   81.926
 3476.00    0.46660   0.46198   75.268
 3477.00    0.47705   0.47190   74.118
 3478.00    0.48706   0.48804  338.536
 3479.00    0.49441   0.50340   -1.000
 3480.00    0.51628   0.51470  586.268
 3481.00    0.53270   0.51856   -1.000
 3482.00    0.53447   0.51363   -1.000
 3483.00    0.53442   0.50576   -1.000
 3484.00    0.53873   0.50490   -1.000
 3485.00    0.52291   0.51627   -1.000
 3486.00    0.53921   0.53176   -1.000
 3487.00    0.55740   0.53900   -1.000
 3488.00    0.54956   0.53164   -1.000
 3489.00    0.55489   0.51325   -1.000
 3490.00    0.52021   0.49552   -1.000
 3491.00    0.51048   0.48891   -1.000
 3492.00    0.50898   0.49378   -1.000
 3493.00    0.50719   0.50154   -1.000
 3494.00    0.49935   0.50408  586.268
 3495.00    0.50477   0.49829   -1.000
 3496.00    0.49568   0.49032   -1.000
 3497.00    0.49681   0.49278  586.268
 3498.00    0.51873   0.50916   -1.000
 3499.00    0.54550   0.52983   -1.000
 3500.00    0.54237   0.54230  580.915
 3501.00    0.55911   0.54733   -1.000
 3502.00    0.55023   0.55268  564.475
 3503.00    0.55883   0.55620  560.074
 3504.00    0.55427   0.55222  573.822
 3505.00    0.54879   0.54206   -1.000
 3506.00    0.55373   0.53294   -1.000
 3507.00    0.54373   0.53007   -1.000
 3508.00    0.54960   0.52998   -1.000
 3509.00    0.56021   0.52626   -1.000
 3510.00    0.55430   0.51885   -1.000
 3511.00    0.55669   0.51037   -1.000
 3512.00    0.54494   0.50087   -1.000
 3513.00    0.54141   0.49163   -1.000
 3514.00    0.52414   0.48964   -1.000
 3515.00    0.52748   0.50238   -1.000
 3516.00    0.55806   0.52756   -1.000
 3517.00    0.56396   0.55113   -1.000
 3518.00    0.58000   0.56034   -1.000
 3519.00    0.58754   0.55173   -1.000
 3520.00    0.54974   0.53332   -1.000
 3521.00    0.53136   0.51484   -1.000
 3522.00    0.52252   0.50023   -1.000
 3523.00    0.51725   0.48702   -1.000
 3524.00    0.50830   0.47350   -1.000
 3525.00    0.45560   0.46528   74.505
 3526.00    0.47087   0.47189   74.385
 3527.00    0.49960   0.49290  339.583
 3528.00    0.51298   0.51968   -1.000
 3529.00    0.54232   0.54072  586.268
 3530.00    0.55134   0.54927  586.268
 3531.00    0.56259   0.54754   -1.000
 3532.00    0.55037   0.54403   -1.000
 3533.00    0.54609   0.54420  586.268
 3534.00    0.55630   0.54762   -1.000
 3535.00    0.54934   0.55205  586.268
 3536.00    0.55581   0.55667  578.668
 3537.00    0.56565   0.56310  580.617
 3538.00    0.57207   0.57218  575.376
 3539.00    0.58751   0.57883   -1.000
 3540.00    0.58697   0.57832   -1.000
 3541.00    0.57043   0.57288  581.896
 3542.00    0.55731   0.56984   -1.000
 3543.00    0.56898   0.57361   -1.000
 3544.00    0.56828   0.58004   -1.000
 3545.00    0.55250   0.58262   -1.000
 3546.00    0.55519   0.57989   -1.000
 3547.00    0.53694   0.57577   -1.000
 3548.00    0.53346   0.57432   -1.000
 3549.00    0.55533   0.57570   -1.000
 3550.00    0.55890   0.57653   -1.000
 3551.00    0.56440   0.57289   -1.000
 3552.00    0.52829   0.56379   -1.000
 3553.00    0.53216   0.55296   -1.000
 3554.00    0.51590   0.54685   -1.000
 3555.00    0.52328   0.54806   -1.000
 3556.00    0.52126   0.55215   -1.000
 3557.00    0.54814   0.55464   -1.000
 3558.00    0.53153   0.55397   -1.000
 3559.00    0.53593   0.55270   -1.000
 3560.00    0.52122   0.55534   -1.000
 3561.00    0.53574   0.56302   -1.000
 3562.00    0.54125   0.56909   -1.000
 3563.00    0.53962   0.56153   -1.000
 3564.00    0.52889   0.53714   -1.000
 3565.00    0.47643   0.50762   82.264
 3566.00    0.46320   0.48959   75.568
 3567.00    0.47285   0.48629   75.157
 3568.00    0.48027   0.48630   74.682
 3569.00    0.47590   0.48061   76.886
 3570.00    0.46558   0.47276   78.450
 3571.00    0.45698   0.47079   76.430
 3572.00    0.47357   0.47767   73.114
 3573.00    0.49881   0.48788   -1.000
 3574.00    0.50242   0.49643   -1.000
 3575.00    0.52356   0.50320   -1.000
 3576.00    0.50572   0.50726  586.268
 3577.00    0.50458   0.50537  586.268
 3578.00    0.51450   0.49590   -1.000
 3579.00    0.48639   0.47879   85.102
 3580.00    0.44890   0.45958   80.633
 3581.00    0.44376   0.44598   85.309
 3582.00    0.44389   0.44325   86.345
 3583.00    0.43396   0.44738   86.719
 3584.00    0.43322   0.44695   88.697
 3585.00    0.42474   0.43867   91.552
 3586.00    0.40579   0.43066   93.051
 3587.00    0.40355   0.43186   89.011
 3588.00    0.43379   0.44475   84.281
 3589.00    0.45061   0.46736   80.161
 3590.00    0.47643   0.49383   73.334
 3591.00    0.51509   0.51546  325.974
 3592.00    0.52548   0.52616  586.268
 3593.00    0.52423   0.52962   -1.000
 3594.00    0.52539   0.53524   -1.000
 3595.00    0.55345   0.54769   -1.000
 3596.00    0.57377   0.56321   -1.000
 3597.00    0.56972   0.57564   -1.000
 3598.00    0.57743   0.58437   -1.000
 3599.00    0.58675   0.59044  542.779
 3600.00    0.59339   0.58930  547.538
 3601.00    0.57530   0.57563  571.659
 3602.00    0.56117   0.55398   -1.000
 3603.00    0.57106   0.53333   -1.000
 3604.00    0.55298   0.52121   -1.000
 3605.00    0.53165   0.51828   -1.000
 3606.00    0.53457   0.51768   -1.000
 3607.00    0.53427   0.51219   -1.000
 3608.00    0.52139   0.50215   -1.000
 3609.00    0.50294   0.49593   -1.000
 3610.00    0.49663   0.49968  586.268
 3611.00    0.51216   0.51133  586.268
 3612.00    0.52783   0.52332  586.268
 3613.00    0.52886   0.53275  586.268
 3614.00    0.53799   0.54330   -1.000
 3615.00    0.55344   0.55373  586.268
 3616.00    0.57548   0.55269   -1.000
 3617.00    0.54494   0.53362   -1.000
 3618.00    0.51568   0.50635   -1.000
 3619.00    0.48966   0.49223   81.266
 3620.00    0.49737   0.50212  324.239
 3621.00    0.54310   0.52888   -1.000
 3622.00    0.57277   0.55648   -1.000
 3623.00    0.57064   0.57481   -1.000
 3624.00    0.56160   0.58845   -1.000
 3625.00    0.58184   0.60656   -1.000
 3626.00    0.60383   0.62775   -1.000
 3627.00    0.62043   0.64137   -1.000
 3628.00    0.60130   0.63510   -1.000
 3629.00    0.58773   0.60504   -1.000
 3630.00    0.54609   0.56146   -1.000
 3631.00    0.52811   0.52639  586.268
 3632.00    0.50823   0.51433   -1.000
 3633.00    0.50515   0.52355   -1.000
 3634.00    0.51267   0.54169   -1.000
 3635.00    0.54818   0.55691   -1.000
 3636.00    0.56657   0.56701  586.268
 3637.00    0.56794   0.57864   -1.000
 3638.00    0.59759   0.59482  543.106
 3639.00    0.60772   0.60953  524.196
 3640.00    0.61657   0.61552  521.644
 3641.00    0.60285   0.60967   -1.000
 3642.00    0.58794   0.59429   -1.000
 3643.00    0.56498   0.57562   -1.000
 3644.00    0.54761   0.55899   -1.000
 3645.00    0.54816   0.54607  586.268
 3646.00    0.54399   0.53557   -1.000
 3647.00    0.54019   0.52793   -1.000
 3648.00    0.53653   0.52733   -1.000
 3649.00    0.53324   0.53589  586.268
 3650.00    0.54568   0.55274   -1.000
 3651.00    0.57657   0.57428  564.035
 3652.00    0.59878   0.59577  539.933
 3653.00    0.58456   0.61166   -1.000
 3654.00    0.60109   0.62140   -1.000
 3655.00    0.61502   0.62900   -1.000
 3656.00    0.61438   0.63786   -1.000
 3657.00    0.62136   0.64766   -1.000
 3658.00    0.64206   0.65439   -1.000
 3659.00    0.62906   0.65603   -1.000
 3660.00    0.62587   0.65270   -1.000
 3661.00    0.62470   0.64460   -1.000
 3662.00    0.63795   0.63335  506.074
 3663.00    0.62306   0.62455  514.418
 3664.00    0.61258   0.62213   -1.000
 3665.00    0.61492   0.62403   -1.000
 3666.00    0.63023   0.62477  513.275
 3667.00    0.62886   0.61988   -1.000
 3668.00    0.61174   0.61064  529.357
 3669.00    0.60115   0.60419  541.686
 3670.00    0.60235   0.60752   -1.000
 3671.00    0.61104   0.61983   -1.000
 3672.00    0.61098   0.63283   -1.000
 3673.00    0.62624   0.63973   -1.000
 3674.00    0.64862   0.63952   -1.000
 3675.00    0.62534   0.63220   -1.000
 3676.00    0.60795   0.61750   -1.000
 3677.00    0.62539   0.59822   -1.000
 3678.00    0.60366   0.58029   -1.000
 3679.00    0.57681   0.57040  569.306
 3680.00    0.56827   0.57249  569.543
 3681.00    0.60572   0.58379   -1.000
 3682.00    0.62414   0.59587   -1.000
 3683.00    0.61193   0.60122   -1.000
 3684.00    0.60183   0.59549  544.858
 3685.00    0.58866   0.57886   -1.000
 3686.00    0.57434   0.56005   -1.000
 3687.00    0.54507   0.55430   -1.000
 3688.00    0.56077   0.56942   -1.000
 3689.00    0.59112   0.59941   -1.000
 3690.00    0.62444   0.62866  514.595
 3691.00    0.62636   0.64507   -1.000
 3692.00    0.63393   0.64756   -1.000
 3693.00    0.63074   0.64228   -1.000
 3694.00    0.62909   0.63651   -1.000
 3695.00    0.61470   0.63247   -1.000
 3696.00    0.63731   0.63015  513.687
 3697.00    0.63528   0.63468  507.578
 3698.00    0.63313   0.65150   -1.000
 3699.00    0.66535   0.67528   -1.000
 3700.00    0.68641   0.69160   -1.000
 3701.00    0.68306   0.68633  479.369
 3702.00    0.65646   0.65497  500.028
 3703.00    0.61675   0.60569   -1.000
 3704.00    0.56744   0.55893   -1.000
 3705.00    0.54109   0.53197   -1.000
 3706.00    0.55113   0.52985   -1.000
 3707.00    0.57187   0.54328   -1.000
 3708.00    0.57004   0.55890   -1.000
 3709.00    0.57555   0.56984   -1.000
 3710.00    0.58267   0.57840  563.626
 3711.00    0.58874   0.59055  537.951
 3712.00    0.61638   0.61086  507.981
 3713.00    0.64818   0.63878   -1.000
 3714.00    0.67752   0.66620   -1.000
 3715.00    0.69724   0.68338   -1.000
 3716.00    0.69526   0.68538   -1.000
 3717.00    0.68021   0.67007   -1.000
 3718.00    0.64312   0.63265   -1.000
 3719.00    0.58469   0.57498   -1.000
 3720.00    0.52791   0.51473   -1.000
 3721.00    0.49632   0.47895   83.209
 3722.00    0.49892   0.48055   -1.000
 3723.00    0.55336   0.51601   -1.000
 3724.00    0.61967   0.57146   -1.000
 3725.00    0.65111   0.62003   -1.000
 3726.00    0.65386   0.64040   -1.000
 3727.00    0.63605   0.64116  540.750
 3728.00    0.62988   0.64219   -1.000
 3729.00    0.63836   0.64685   -1.000
 3730.00    0.63765   0.64202  543.125
 3731.00    0.60627   0.61327   -1.000
 3732.00    0.57342   0.55893   -1.000
 3733.00    0.52129   0.49650   81.575
 3734.00    0.47759   0.44709   79.451
 3735.00    0.45659   0.42708   83.292
 3736.00    0.46295   0.44261   79.981
 3737.00    0.50439   0.48821   72.832
 3738.00    0.56618   0.54925   -1.000
 3739.00    0.60638   0.61011  579.268
 3740.00    0.64172   0.65205   -1.000
 3741.00    0.66761   0.66408  536.495
 3742.00    0.64167   0.64968   -1.000
 3743.00    0.59751   0.62262   -1.000
 3744.00    0.59369   0.59419  586.268
 3745.00    0.57918   0.56785   -1.000
 3746.00    0.55782   0.54009   -1.000
 3747.00    0.51595   0.50652   82.890
 3748.00    0.48702   0.47127   77.092
 3749.00    0.45700   0.44891   78.454
 3750.00    0.48947   0.45798   -1.000
 3751.00    0.53586   0.50167   -1.000
 3752.00    0.60389   0.56346   -1.000
 3753.00    0.64349   0.62417   -1.000
 3754.00    0.68386   0.67151   -1.000
 3755.00    0.70496   0.69309   -1.000
 3756.00    0.68397   0.68158  503.081
 3757.00    0.63891   0.64308  565.215
 3758.00    0.59619   0.60085  586.268
 3759.00    0.59040   0.58032   -1.000
 3760.00    0.60135   0.58456   -1.000
 3761.00    0.63392   0.60011   -1.000
 3762.00    0.65620   0.61494   -1.000
 3763.00    0.65829   0.62406   -1.000
 3764.00    0.65414   0.62740   -1.000
 3765.00    0.64443   0.62374   -1.000
 3766.00    0.63726   0.61188   -1.000
 3767.00    0.62472   0.59588   -1.000
 3768.00    0.60752   0.57910   -1.000
 3769.00    0.59483   0.56255   -1.000
 3770.00    0.59072   0.55285   -1.000
 3771.00    0.60338   0.56216   -1.000
 3772.00    0.62917   0.59206   -1.000
 3773.00    0.65398   0.62798   -1.000
 3774.00    0.67934   0.65462   -1.000
 3775.00    0.67427   0.67045  498.617
 3776.00    0.69092   0.68338   -1.000
 3777.00    0.70973   0.69967   -1.000
 3778.00    0.71660   0.72005  489.748
 3779.00    0.73959   0.74055  474.276
 3780.00    0.76375   0.75768  462.635
 3781.00    0.77439   0.76843  458.655
 3782.00    0.76155   0.77192   -1.000
 3783.00    0.76087   0.76950   -1.000
 3784.00    0.76820   0.75881   -1.000
 3785.00    0.74647   0.73529   -1.000
 3786.00    0.71791   0.70243   -1.000
 3787.00    0.67303   0.67144  551.957
 3788.00    0.65615   0.65259  564.184
 3789.00    0.65367   0.64956  564.984
 3790.00    0.65825   0.65696  555.926
 3791.00    0.66531   0.66372  549.716
 3792.00    0.66510   0.65962   -1.000
 3793.00    0.64715   0.64010   -1.000
 3794.00    0.61848   0.60921   -1.000
 3795.00    0.59752   0.57320   -1.000
 3796.00    0.56897   0.53560   -1.000
 3797.00    0.54443   0.50068   -1.000
 3798.00    0.51958   0.48336   -1.000
 3799.00    0.54054   0.50067   -1.000
 3800.00    0.58069   0.55171   -1.000
 3801.00    0.62737   0.61490   -1.000
 3802.00    0.67172   0.66969  523.900
 3803.00    0.70248   0.70586  511.064
 3804.00    0.71551   0.72149   -1.000
 3805.00    0.71342   0.71835  513.836
 3806.00    0.69518   0.70575   -1.000
 3807.00    0.67397   0.69989   -1.000
 3808.00    0.67627   0.70988   -1.000
 3809.00    0.71593   0.73048   -1.000
 3810.00    0.73968   0.74660   -1.000
 3811.00    0.73797   0.74300  512.968
 3812.00    0.70294   0.71463   -1.000
 3813.00    0.67361   0.67296  571.935
 3814.00    0.64870   0.63685   -1.000
 3815.00    0.63008   0.62089   -1.000
 3816.00    0.63964   0.62641   -1.000
 3817.00    0.65484   0.63954   -1.000
 3818.00    0.65453   0.64062   -1.000
 3819.00    0.62682   0.62257  586.268
 3820.00    0.60175   0.60199  586.268
 3821.00    0.59773   0.59872  586.268
 3822.00    0.62083   0.61092   -1.000
 3823.00    0.63220   0.61525   -1.000
 3824.00    0.59917   0.59744  586.268
 3825.00    0.56936   0.57099   85.933
 3826.00    0.54650   0.55401   76.851
 3827.00    0.54779   0.55041   76.452
 3828.00    0.55926   0.55417   75.273
 3829.00    0.55789   0.55782   74.034
 3830.00    0.55093   0.55355   74.710
 3831.00    0.51742   0.53412   77.845
 3832.00    0.47897   0.50020   83.800
 3833.00    0.46730   0.46201   86.875
 3834.00    0.45742   0.43367   85.642
 3835.00    0.45334   0.42380   82.347
 3836.00    0.46913   0.43128   -1.000
 3837.00    0.47339   0.44923   81.685
 3838.00    0.47133   0.47039   83.655
 3839.00    0.49723   0.49410   82.563
 3840.00    0.52322   0.52460   78.174
 3841.00    0.55528   0.56530  334.340
 3842.00    0.59757   0.61003   -1.000
 3843.00    0.64279   0.64854   -1.000
 3844.00    0.66514   0.67384   -1.000
 3845.00    0.66927   0.68701   -1.000
 3846.00    0.68051   0.69407   -1.000
 3847.00    0.68249   0.69686   -1.000
 3848.00    0.67497   0.69167   -1.000
 3849.00    0.66408   0.68082   -1.000
 3850.00    0.65681   0.67491   -1.000
 3851.00    0.65599   0.68158   -1.000
 3852.00    0.66821   0.69435   -1.000
 3853.00    0.67225   0.70008   -1.000
 3854.00    0.66943   0.69371   -1.000
 3855.00    0.65124   0.67943   -1.000
 3856.00    0.65475   0.66390   -1.000
 3857.00    0.65440   0.64938  586.268
 3858.00    0.62124   0.63436   81.470
 3859.00    0.59702   0.62412   75.376
 3860.00    0.59512   0.62995   74.446
 3861.00    0.62866   0.65433   -1.000
 3862.00    0.67005   0.68369   -1.000
 3863.00    0.70077   0.70121  573.792
 3864.00    0.68760   0.70358   -1.000
 3865.00    0.68008   0.69836   -1.000
 3866.00    0.68719   0.69464   -1.000
 3867.00    0.69366   0.69587  586.268
 3868.00    0.67868   0.69683   -1.000
 3869.00    0.66744   0.69019   -1.000
 3870.00    0.64573   0.67324   -1.000
 3871.00    0.60677   0.65213   -1.000
 3872.00    0.59688   0.63878   -1.000
 3873.00    0.63055   0.64576   -1.000
 3874.00    0.65735   0.67144   -1.000
 3875.00    0.68185   0.69485   -1.000
 3876.00    0.68905   0.69462  572.317
 3877.00    0.65986   0.67242   -1.000
 3878.00    0.62287   0.65086   -1.000
 3879.00    0.61127   0.64571   -1.000
 3880.00    0.61486   0.65108   -1.000
 3881.00    0.60298   0.65400   -1.000
 3882.00    0.59537   0.65125   -1.000
 3883.00    0.62746   0.64757   -1.000
 3884.00    0.65135   0.63764   -1.000
 3885.00    0.63993   0.60958   -1.000
 3886.00    0.61788   0.56646   -1.000
 3887.00    0.58929   0.52366   -1.000
 3888.00    0.55693   0.49875   -1.000
 3889.00    0.55548   0.50370   -1.000
 3890.00    0.59951   0.54058   -1.000
 3891.00    0.65502   0.59719   -1.000
 3892.00    0.69790   0.65011   -1.000
 3893.00    0.71029   0.68087   -1.000
 3894.00    0.70452   0.69197   -1.000
 3895.00    0.71427   0.69778   -1.000
 3896.00    0.73097   0.70699   -1.000
 3897.00    0.74257   0.71686   -1.000
 3898.00    0.73782   0.71986   -1.000
 3899.00    0.72884   0.71675   -1.000
 3900.00    0.72963   0.71715   -1.000
 3901.00    0.73968   0.72455   -1.000
 3902.00    0.73608   0.73060  476.921
 3903.00    0.73040   0.72772  495.704
 3904.00    0.72036   0.71699  508.884
 3905.00    0.72259   0.70648   -1.000
 3906.00    0.72180   0.70830   -1.000
 3907.00    0.72926   0.73015  494.074
 3908.00    0.77022   0.76353   -1.000
 3909.00    0.80255   0.79216   -1.000
 3910.00    0.81343   0.80869  443.045
 3911.00    0.82258   0.81452   -1.000
 3912.00    0.82461   0.81021   -1.000
 3913.00    0.82279   0.79761   -1.000
 3914.00    0.81402   0.78351   -1.000
 3915.00    0.80534   0.77511   -1.000
 3916.00    0.78998   0.77164   -1.000
 3917.00    0.77619   0.76677   -1.000
 3918.00    0.77726   0.75552   -1.000
 3919.00    0.74330   0.73661   -1.000
 3920.00    0.72095   0.71696  529.989
 3921.00    0.70847   0.70583  542.607
 3922.00    0.71128   0.70561   -1.000
 3923.00    0.73154   0.71078   -1.000
 3924.00    0.71898   0.71244   -1.000
 3925.00    0.70173   0.70258  556.644
 3926.00    0.67786   0.67615  586.268
 3927.00    0.61673   0.63601   -1.000
 3928.00    0.55406   0.58891   91.181
 3929.00    0.49664   0.54064   -1.000
 3930.00    0.44333   0.49195   -1.000
 3931.00    0.39034   0.43909   -1.000
 3932.00    0.33427   0.38440   -1.000
 3933.00    0.28519   0.34366   -1.000
 3934.00    0.28136   0.33802   -1.000
 3935.00    0.31182   0.37127   -1.000
 3936.00    0.37354   0.42761   -1.000
 3937.00    0.44328   0.48968   -1.000
 3938.00    0.51281   0.54957   80.047
 3939.00    0.56812   0.60175   -1.000
 3940.00    0.61189   0.64155   -1.000
 3941.00    0.64150   0.66492   -1.000
 3942.00    0.65697   0.67275   -1.000
 3943.00    0.65542   0.67591   -1.000
 3944.00    0.67711   0.68635   -1.000
 3945.00    0.71748   0.70673   -1.000
 3946.00    0.74419   0.72935   -1.000
 3947.00    0.75376   0.74466   -1.000
 3948.00    0.75573   0.75248  489.066
 3949.00    0.76044   0.75958  472.720
 3950.00    0.77741   0.76711   -1.000
 3951.00    0.78241   0.77047   -1.000
 3952.00    0.78183   0.77245   -1.000
 3953.00    0.78342   0.78012  456.869
 3954.00    0.81539   0.78868   -1.000
 3955.00    0.80718   0.78777   -1.000
 3956.00    0.78792   0.77748   -1.000
 3957.00    0.75524   0.76750   -1.000
 3958.00    0.76669   0.76344  466.043
 3959.00    0.77021   0.75446   -1.000
 3960.00    0.73753   0.72490   -1.000
 3961.00    0.66872   0.67962   -1.000
 3962.00    0.62002   0.63568   -1.000
 3963.00    0.58333   0.60020   -1.000
 3964.00    0.55417   0.56416   85.984
 3965.00    0.49331   0.51357   86.175
 3966.00    0.41847   0.44561  105.571
 3967.00    0.33007   0.37144   -1.000
 3968.00    0.27945   0.31443   -1.000
 3969.00    0.27562   0.29553  137.715
 3970.00    0.31074   0.31967  115.018
 3971.00    0.38767   0.37695   94.502
 3972.00    0.47105   0.45047   78.899
 3973.00    0.54678   0.52427   -1.000
 3974.00    0.60399   0.59176   -1.000
 3975.00    0.66541   0.65064   -1.000
 3976.00    0.71684   0.70069   -1.000
 3977.00    0.74831   0.74381  463.450
 3978.00    0.78990   0.78141   -1.000
 3979.00    0.82950   0.81161   -1.000
 3980.00    0.85742   0.82764   -1.000
 3981.00    0.85750   0.82806   -1.000
 3982.00    0.85212   0.82156   -1.000
 3983.00    0.84423   0.82154   -1.000
 3984.00    0.85602   0.83389   -1.000
 3985.00    0.86966   0.85085   -1.000
 3986.00    0.89437   0.86427   -1.000
 3987.00    0.90410   0.87439   -1.000
 3988.00    0.90046   0.88284   -1.000
 3989.00    0.89779   0.88829   -1.000
 3990.00    0.91690   0.89338   -1.000
 3991.00    0.92934   0.90241   -1.000
 3992.00    0.93571   0.91440   -1.000
 3993.00    0.93500   0.92266   -1.000
 3994.00    0.93815   0.91984   -1.000
 3995.00    0.92403   0.90479   -1.000
 3996.00    0.91066   0.88595   -1.000
 3997.00    0.89937   0.87679   -1.000
 3998.00    0.90098   0.88457   -1.000
 3999.00    0.93694   0.90491   -1.000
 4000.00    0.96881   0.92586   -1.000
 4001.00    0.98186   0.93911   -1.000
 4002.00    0.98139   0.94085   -1.000
 4003.00    0.98045   0.92806   -1.000
 4004.00    0.95729   0.90166   -1.000
 4005.00    0.91232   0.87635   -1.000
 4006.00    0.89801   0.87346   -1.000
 4007.00    0.93837   0.89622   -1.000
 4008.00    0.96134   0.92709   -1.000
 4009.00    0.98058   0.94879   -1.000
 4010.00    0.99730   0.95854   -1.000
 4011.00    1.01003   0.96043   -1.000
 4012.00    0.98860   0.95923   -1.000
 4013.00    0.97542   0.96105   -1.000
 4014.00    1.01099   0.96716   -1.000
 4015.00    1.01275   0.97280   -1.000
 4016.00    1.00000   0.97561   -1.000
 4017.00    0.99208   0.97787   -1.000
 4018.00    0.99136   0.98345   -1.000
 4019.00    0.99888   0.99123  342.825
 4020.00    0.99456   0.99526  342.919
 4021.00    0.99500   0.99142  347.523
 4022.00    1.00425   0.98072   -1.000
 4023.00    1.00362   0.96626   -1.000
 4024.00    0.98871   0.95399   -1.000
 4025.00    0.98396   0.95450   -1.000
 4026.00    1.01166   0.97222   -1.000
 4027.00    1.04866   0.99308   -1.000
 4028.00    1.04625   0.99651   -1.000
 4029.00    1.00602   0.97485   -1.000
 4030.00    0.96650   0.93810   -1.000
 4031.00    0.93111   0.90485   -1.000
 4032.00    0.92786   0.88818   -1.000
 4033.00    0.94007   0.89091   -1.000
 4034.00    0.94693   0.91088   -1.000
 4035.00    0.96948   0.94462   -1.000
 4036.00    1.01011   0.98474   -1.000
 4037.00    1.05205   1.01978   -1.000
 4038.00    1.07425   1.03739   -1.000
 4039.00    1.05410   1.03506   -1.000
 4040.00    1.02145   1.02296  335.368
 4041.00    1.01081   1.01161  339.543
 4042.00    1.02101   0.99634   -1.000
 4043.00    1.00215   0.96218   -1.000
 4044.00    0.93248   0.90956   -1.000
 4045.00    0.87364   0.86610  420.433
 4046.00    0.87817   0.86424   -1.000
 4047.00    0.94266   0.90606   -1.000
 4048.00    1.00715   0.96073   -1.000
 4049.00    1.02184   1.00027   -1.000
 4050.00    1.03822   1.01731   -1.000
 4051.00    1.04355   1.01673   -1.000
 4052.00    1.02924   1.00422   -1.000
 4053.00    1.01299   0.98601   -1.000
 4054.00    0.99383   0.97064   -1.000
 4055.00    0.98132   0.96175   -1.000
 4056.00    0.98229   0.95652   -1.000
 4057.00    0.98190   0.95509   -1.000
 4058.00    0.98879   0.96381   -1.000
 4059.00    1.01494   0.98102   -1.000
 4060.00    1.02624   0.98961   -1.000
 4061.00    1.02676   0.97319   -1.000
 4062.00    0.98501   0.93564   -1.000
 4063.00    0.92772   0.90020   -1.000
 4064.00    0.92278   0.88633   -1.000
 4065.00    0.95180   0.89472   -1.000
 4066.00    0.96571   0.91535   -1.000
 4067.00    0.97500   0.93856   -1.000
 4068.00    1.00631   0.95801   -1.000
 4069.00    1.03978   0.96431   -1.000
 4070.00    1.01717   0.94959   -1.000
 4071.00    0.98109   0.92641   -1.000
 4072.00    0.98115   0.91957   -1.000
 4073.00    0.99287   0.93287   -1.000
 4074.00    0.99548   0.94394   -1.000
 4075.00    0.96671   0.93055   -1.000
 4076.00    0.89625   0.89678  394.958
 4077.00    0.86067   0.87065   -1.000
 4078.00    0.87273   0.87659  398.977
 4079.00    0.92089   0.91656  372.920
 4080.00    0.98867   0.96648   -1.000
 4081.00    1.02241   0.99861   -1.000
 4082.00    1.01717   1.00249   -1.000
 4083.00    0.99552   0.98705   -1.000
 4084.00    0.97744   0.97113  356.163
 4085.00    0.97236   0.97011  352.060
 4086.00    1.00740   0.98779   -1.000
 4087.00    1.04026   1.01559   -1.000
 4088.00    1.07260   1.03952   -1.000
 4089.00    1.08104   1.04896   -1.000
 4090.00    1.07045   1.04315   -1.000
 4091.00    1.04869   1.03109   -1.000
 4092.00    1.03520   1.02052   -1.000
 4093.00    1.03610   1.00881   -1.000
 4094.00    1.02145   0.99017   -1.000
 4095.00    0.98374   0.96303   -1.000
 4096.00    0.95161   0.93211   -1.000
 4097.00    0.93519   0.90283   -1.000
 4098.00    0.91644   0.86938   -1.000
 4099.00    0.88168   0.82102   -1.000
 4100.00    0.81823   0.76029   -1.000
 4101.00    0.74485   0.71039   -1.000
 4102.00    0.73719   0.70077   -1.000
 4103.00    0.79039   0.74245   -1.000
 4104.00    0.86172   0.81401   -1.000
 4105.00    0.93020   0.88305   -1.000
 4106.00    0.96678   0.93072   -1.000
 4107.00    0.97930   0.95495   -1.000
 4108.00    0.97519   0.96144   -1.000
 4109.00    0.96239   0.95874  360.403
 4110.00    0.96515   0.95687  365.976
 4111.00    0.96177   0.96345  362.554
 4112.00    0.97549   0.97946  354.690
 4113.00    0.99579   1.00066  348.354
 4114.00    1.01031   1.02113   -1.000
 4115.00    1.03613   1.03475  339.362
 4116.00    1.04216   1.03549  340.473
 4117.00    1.01915   1.02182  347.135
 4118.00    0.98661   1.00155   -1.000
 4119.00    0.98142   0.98739  363.634
 4120.00    0.99862   0.98543   -1.000
 4121.00    0.98770   0.98967  356.169
 4122.00    0.97590   0.99323   -1.000
 4123.00    0.99619   0.99847  352.745
 4124.00    1.01709   1.00827   -1.000
 4125.00    1.03669   1.01669   -1.000
 4126.00    1.03046   1.01424   -1.000
 4127.00    1.01597   1.00008   -1.000
 4128.00    1.00176   0.98402   -1.000
 4129.00    1.00023   0.97380   -1.000
 4130.00    1.00481   0.96478   -1.000
 4131.00    0.98207   0.95074   -1.000
 4132.00    0.95327   0.93780   -1.000
 4133.00    0.93608   0.94026  391.074
 4134.00    0.95173   0.96311   -1.000
 4135.00    0.98876   0.99653  361.091
 4136.00    1.03336   1.02746  348.552
 4137.00    1.05321   1.05019  342.301
 4138.00    1.06459   1.06524  336.952
 4139.00    1.06155   1.07143   -1.000
 4140.00    1.05012   1.06142   -1.000
 4141.00    1.02501   1.02866  357.894
 4142.00    0.97114   0.98064   -1.000
 4143.00    0.92123   0.94311   -1.000
 4144.00    0.92109   0.93992   -1.000
 4145.00    0.97651   0.96958  375.001
 4146.00    1.01509   1.00687  359.979
 4147.00    1.03845   1.02764   -1.000
 4148.00    1.03128   1.02767  360.764
 4149.00    1.00313   1.01846   -1.000
 4150.00    0.99935   1.01219   -1.000
 4151.00    1.00599   1.01125  374.004
 4152.00    0.99748   1.00987   -1.000
 4153.00    0.98891   1.00377   -1.000
 4154.00    0.98766   0.99576   -1.000
 4155.00    0.98872   0.99261  372.756
 4156.00    0.97761   0.99892   -1.000
 4157.00    1.14974   1.01400   -1.000
 4158.00    1.28567   1.03320   -1.000
 4159.00    0.97691   1.04989   -1.000
 4160.00    0.83066   1.06005   -1.000
 4161.00    1.01711   1.06526   -1.000
 4162.00    1.07921   1.06908   -1.000
 4163.00    1.06615   1.07151  345.127
 4164.00    1.06429   1.07052  350.464
 4165.00    1.04673   1.06504   -1.000
 4166.00    1.03346   1.05494   -1.000
 4167.00    1.02200   1.04644   -1.000
 4168.00    1.01609   1.04567   -1.000
 4169.00    1.03294   1.04587   -1.000
 4170.00    1.03312   1.03126  364.107
 4171.00    0.99820   0.99605  383.852
 4172.00    0.94205   0.95697   -1.000
 4173.00    0.91242   0.93806   -1.000
 4174.00    0.92585   0.94758   -1.000
 4175.00    0.96806   0.97106  383.683
 4176.00    0.97988   0.98677   -1.000
 4177.00    0.97887   0.98903   -1.000
 4178.00    0.96903   0.98946   -1.000
 4179.00    0.99018   0.99804   -1.000
 4180.00    1.00629   1.01076  373.166
 4181.00    0.99567   1.01802   -1.000
 4182.00    1.00024   1.02061   -1.000
 4183.00    1.00738   1.02738   -1.000
 4184.00    1.01478   1.03729   -1.000
 4185.00    1.02334   1.03971   -1.000
 4186.00    1.02051   1.02890   -1.000
 4187.00    1.00668   1.01450   -1.000
 4188.00    0.99765   1.01226   -1.000
 4189.00    1.00659   1.02153   -1.000
 4190.00    1.02436   1.03131  364.515
 4191.00    1.02938   1.04031   -1.000
 4192.00    1.03558   1.05152   -1.000
 4193.00    1.06451   1.05978  347.425
 4194.00    1.05957   1.05342  355.917
 4195.00    1.01681   1.02840   -1.000
 4196.00    0.98185   0.99620   -1.000
 4197.00    0.96727   0.97048  394.679
 4198.00    0.96009   0.95648  396.188
 4199.00    0.96662   0.95300   -1.000
 4200.00    0.97477   0.95607   -1.000
 4201.00    0.97278   0.96118   -1.000
 4202.00    0.98412   0.96900   -1.000
 4203.00    1.00006   0.98428   -1.000
 4204.00    1.00260   1.00610  373.575
 4205.00    1.01358   1.02890   -1.000
 4206.00    1.03581   1.05036   -1.000
 4207.00    1.05821   1.06792   -1.000
 4208.00    1.06357   1.07550   -1.000
 4209.00    1.05135   1.07375   -1.000
 4210.00    1.04901   1.07162   -1.000
 4211.00    1.05455   1.07471   -1.000
 4212.00    1.05505   1.07699   -1.000
 4213.00    1.05246   1.06564   -1.000
 4214.00    1.01965   1.03920   -1.000
 4215.00    0.98035   1.01504   -1.000
 4216.00    0.98410   1.01434   -1.000
 4217.00    1.02389   1.04276   -1.000
 4218.00    1.06061   1.08157   -1.000
 4219.00    1.09334   1.11017   -1.000
 4220.00    1.10337   1.12138   -1.000
 4221.00    1.10792   1.11368  324.133
 4222.00    1.09793   1.08400   -1.000
 4223.00    1.04915   1.03205   -1.000
 4224.00    0.98181   0.96317   -1.000
 4225.00    0.89686   0.89457  445.108
 4226.00    0.82614   0.85467   -1.000
 4227.00    0.83183   0.86911   -1.000
 4228.00    0.92398   0.93578   -1.000
 4229.00    1.02267   1.01906  359.349
 4230.00    1.06808   1.07527   -1.000
 4231.00    1.07136   1.08800   -1.000
 4232.00    1.06139   1.07068   -1.000
 4233.00    1.04413   1.04533  349.962
 4234.00    1.03388   1.02647  354.059
 4235.00    1.02504   1.01788  361.849
 4236.00    1.01104   1.01702  368.681
 4237.00    1.01141   1.02297   -1.000
 4238.00    1.02097   1.03650   -1.000
 4239.00    1.03117   1.05505   -1.000
 4240.00    1.05451   1.07410   -1.000
 4241.00    1.07501   1.09020   -1.000
 4242.00    1.08505   1.10384   -1.000
 4243.00    1.09226   1.11770   -1.000
 4244.00    1.10782   1.12804   -1.000
 4245.00    1.11713   1.12296  330.006
 4246.00    1.08288   1.09644   -1.000
 4247.00    1.03180   1.06003   -1.000
 4248.00    1.00882   1.03082   -1.000
 4249.00    1.00085   1.01645   -1.000
 4250.00    1.00178   1.01707   -1.000
 4251.00    1.02371   1.03027  361.498
 4252.00    1.05600   1.04482   -1.000
 4253.00    1.06113   1.04898   -1.000
 4254.00    1.04002   1.04793  360.856
 4255.00    1.04264   1.05608   -1.000
 4256.00    1.07349   1.07345  344.580
 4257.00    1.09601   1.07999   -1.000
 4258.00    1.08001   1.06071   -1.000
 4259.00    1.02343   1.02773  371.067
 4260.00    0.99627   1.00891   -1.000
 4261.00    1.00892   1.02333   -1.000
 4262.00    1.04830   1.06695   -1.000
 4263.00    1.09651   1.11735   -1.000
 4264.00    1.12245   1.15130   -1.000
 4265.00    1.13704   1.16076   -1.000
 4266.00    1.11992   1.15145   -1.000
 4267.00    1.10225   1.12918   -1.000
 4268.00    1.08257   1.09482   -1.000
 4269.00    1.05601   1.04952  359.068
 4270.00    1.00983   0.99887   -1.000
 4271.00    0.95295   0.95643  405.719
 4272.00    0.92820   0.93737   -1.000
 4273.00    0.94155   0.94551  404.284
 4274.00    0.95820   0.97255   -1.000
 4275.00    0.98199   1.01228   -1.000
 4276.00    1.04082   1.06010   -1.000
 4277.00    1.09336   1.10088  336.188
 4278.00    1.09788   1.11674   -1.000
 4279.00    1.08002   1.10707   -1.000
 4280.00    1.03388   1.08822   -1.000
 4281.00    1.02878   1.07824   -1.000
 4282.00    1.05058   1.07973   -1.000
 4283.00    1.05870   1.08162   -1.000
 4284.00    1.04631   1.07659   -1.000
 4285.00    1.02314   1.06464   -1.000
 4286.00    0.99081   1.04808   -1.000
 4287.00    0.97395   1.02649   -1.000
 4288.00    0.95791   0.99730   -1.000
 4289.00    0.93100   0.96785   -1.000
 4290.00    0.90803   0.95733   -1.000
 4291.00    0.94257   0.97644   -1.000
 4292.00    0.98510   1.00986   -1.000
 4293.00    1.02065   1.02944  366.833
 4294.00    1.02985   1.02599  369.234
 4295.00    1.02390   1.01096   -1.000
 4296.00    0.98398   0.99028  383.495
 4297.00    0.93660   0.95845   -1.000
 4298.00    0.90142   0.91485   -1.000
 4299.00    0.84553   0.87127   -1.000
 4300.00    0.81619   0.84341   -1.000
 4301.00    0.82542   0.83705   -1.000
 4302.00    0.82384   0.84574   -1.000
 4303.00    0.84375   0.86130   -1.000
 4304.00    0.86308   0.87671   -1.000
 4305.00    0.86509   0.88087   -1.000
 4306.00    0.86148   0.86695  460.149
 4307.00    0.82276   0.84310   -1.000
 4308.00    0.80163   0.82816   -1.000
 4309.00    0.80248   0.83660   -1.000
 4310.00    0.81796   0.86659   -1.000
 4311.00    0.85044   0.90444   -1.000
 4312.00    0.88896   0.93913   -1.000
 4313.00    0.92785   0.97460   -1.000
 4314.00    0.97618   1.02500   -1.000
 4315.00    1.05765   1.09437   -1.000
 4316.00    1.13036   1.16692   -1.000
 4317.00    1.18877   1.21804   -1.000
 4318.00    1.22091   1.23566   -1.000
 4319.00    1.20389   1.22562   -1.000
 4320.00    1.17651   1.19986   -1.000
 4321.00    1.14840   1.16416   -1.000
 4322.00    1.10321   1.11672   -1.000
 4323.00    1.03797   1.05578   -1.000
 4324.00    0.97267   0.99473   -1.000
 4325.00    0.93897   0.96617   -1.000
 4326.00    0.97871   0.99528   -1.000
 4327.00    1.04668   1.06787   -1.000
 4328.00    1.13627   1.13976  324.349
 4329.00    1.16491   1.17837   -1.000
 4330.00    1.15425   1.18625   -1.000
 4331.00    1.14586   1.18526   -1.000
 4332.00    1.14950   1.19009   -1.000
 4333.00    1.15785   1.19753   -1.000
 4334.00    1.16493   1.19507   -1.000
 4335.00    1.15887   1.16869  310.917
 4336.00    1.09686   1.10772  329.497
 4337.00    1.02911   1.01643   -1.000
 4338.00    0.93869   0.91807   -1.000
 4339.00    0.85381   0.84466   -1.000
 4340.00    0.81191   0.81952  440.630
 4341.00    0.86226   0.85041   -1.000
 4342.00    0.95789   0.92297   -1.000
 4343.00    1.02914   1.00526   -1.000
 4344.00    1.07764   1.07121  335.768
 4345.00    1.11237   1.11773  326.554
 4346.00    1.13856   1.15420   -1.000
 4347.00    1.15682   1.18528   -1.000
 4348.00    1.16523   1.20383   -1.000
 4349.00    1.17050   1.19450   -1.000
 4350.00    1.12632   1.15303   -1.000
 4351.00    1.05498   1.10237   -1.000
 4352.00    1.02695   1.07794   -1.000
 4353.00    1.06694   1.09535   -1.000
 4354.00    1.12265   1.13743   -1.000
 4355.00    1.14199   1.17751   -1.000
 4356.00    1.17212   1.20140   -1.000
 4357.00    1.19585   1.20691  312.724
 4358.00    1.17117   1.19974   -1.000
 4359.00    1.14445   1.19475   -1.000
 4360.00    1.16317   1.20458   -1.000
 4361.00    1.19772   1.22597   -1.000
 4362.00    1.21529   1.24799   -1.000
 4363.00    1.22652   1.26482   -1.000
 4364.00    1.23740   1.27406   -1.000
 4365.00    1.23691   1.27016   -1.000
 4366.00    1.21416   1.24807   -1.000
 4367.00    1.17648   1.21556   -1.000
 4368.00    1.15651   1.19102   -1.000
 4369.00    1.16448   1.18281   -1.000
 4370.00    1.16476   1.18291   -1.000
 4371.00    1.16650   1.17858  318.076
 4372.00    1.16141   1.16067  320.935
 4373.00    1.13075   1.12834  333.147
 4374.00    1.08528   1.09673  346.573
 4375.00    1.07074   1.09054   -1.000
 4376.00    1.10840   1.11855  334.994
 4377.00    1.16841   1.16262  318.296
 4378.00    1.20850   1.19400   -1.000
 4379.00    1.20444   1.19756  312.850
 4380.00    1.19445   1.17218   -1.000
 4381.00    1.17174   1.11687   -1.000
 4382.00    1.09627   1.03745   -1.000
 4383.00    1.00602   0.96529   -1.000
 4384.00    0.97153   0.94021   -1.000
 4385.00    1.01390   0.97399   -1.000
 4386.00    1.09069   1.03853   -1.000
 4387.00    1.14371   1.09253   -1.000
 4388.00    1.15268   1.11797   -1.000
 4389.00    1.13454   1.12311   -1.000
 4390.00    1.12513   1.12421  336.974
 4391.00    1.14092   1.13122   -1.000
 4392.00    1.17043   1.14074   -1.000
 4393.00    1.17890   1.14155   -1.000
 4394.00    1.14441   1.13530   -1.000
 4395.00    1.14145   1.14079  331.459
 4396.00    1.18735   1.16610   -1.000
 4397.00    1.21732   1.19200   -1.000
 4398.00    1.21028   1.19369   -1.000
 4399.00    1.17646   1.17143  321.638
 4400.00    1.14805   1.15088  331.514
 4401.00    1.16039   1.14721   -1.000
 4402.00    1.18383   1.14545   -1.000
 4403.00    1.17835   1.12629   -1.000
 4404.00    1.12670   1.09611   -1.000
 4405.00    1.09601   1.08121   -1.000
 4406.00    1.12668   1.09276   -1.000
 4407.00    1.13269   1.11653   -1.000
 4408.00    1.13452   1.14127  336.717
 4409.00    1.16238   1.17191  324.725
 4410.00    1.20757   1.21078  310.838
 4411.00    1.24600   1.24444  300.017
 4412.00    1.25869   1.25262  295.862
 4413.00    1.24651   1.22722   -1.000
 4414.00    1.21288   1.18064   -1.000
 4415.00    1.16123   1.14089   -1.000
 4416.00    1.14487   1.13383   -1.000
 4417.00    1.16437   1.16187  320.456
 4418.00    1.20660   1.20687  307.234
 4419.00    1.24024   1.24524  298.162
 4420.00    1.24541   1.25919   -1.000
 4421.00    1.22253   1.24752   -1.000
 4422.00    1.19276   1.22889   -1.000
 4423.00    1.19519   1.22212   -1.000
 4424.00    1.20071   1.22749   -1.000
 4425.00    1.20018   1.23456   -1.000
 4426.00    1.19023   1.23830   -1.000
 4427.00    1.18640   1.24074   -1.000
 4428.00    1.18806   1.24215   -1.000
 4429.00    1.17901   1.24086   -1.000
 4430.00    1.17628   1.23861   -1.000
 4431.00    1.18259   1.23867   -1.000
 4432.00    1.18998   1.23600   -1.000
 4433.00    1.17580   1.22084   -1.000
 4434.00    1.14473   1.19773   -1.000
 4435.00    1.13089   1.18862   -1.000
 4436.00    1.17231   1.21162   -1.000
 4437.00    1.24312   1.25893   -1.000
 4438.00    1.28413   1.30194   -1.000
 4439.00    1.29010   1.31501   -1.000
 4440.00    1.27085   1.29208   -1.000
 4441.00    1.23320   1.24917   -1.000
 4442.00    1.19321   1.21214   -1.000
 4443.00    1.15274   1.20266   -1.000
 4444.00    1.17553   1.22732   -1.000
 4445.00    1.23217   1.27192   -1.000
 4446.00    1.26860   1.30966   -1.000
 4447.00    1.28084   1.32586   -1.000
 4448.00    1.28613   1.32601   -1.000
 4449.00    1.28273   1.31980   -1.000
 4450.00    1.26234   1.31196   -1.000
 4451.00    1.25614   1.30438   -1.000
 4452.00    1.26444   1.29267   -1.000
 4453.00    1.24936   1.26785   -1.000
 4454.00    1.21533   1.23183   -1.000
 4455.00    1.18181   1.20316   -1.000
 4456.00    1.19159   1.19623  330.109
 4457.00    1.21669   1.20406   -1.000
 4458.00    1.22439   1.21085   -1.000
 4459.00    1.21450   1.20945  325.361
 4460.00    1.20223   1.20428  328.628
 4461.00    1.20377   1.20554  331.629
 4462.00    1.20833   1.22076   -1.000
 4463.00    1.24411   1.24626  313.613
 4464.00    1.28392   1.26937   -1.000
 4465.00    1.28614   1.28117  304.632
 4466.00    1.27007   1.28029  304.832
 4467.00    1.26763   1.26889  307.999
 4468.00    1.24983   1.25371  313.768
 4469.00    1.23330   1.24662   -1.000
 4470.00    1.23936   1.25758   -1.000
 4471.00    1.26876   1.28628   -1.000
 4472.00    1.30633   1.32185   -1.000
 4473.00    1.34074   1.35279  284.266
 4474.00    1.36592   1.37412  281.349
 4475.00    1.37454   1.38808   -1.000
 4476.00    1.37881   1.39961   -1.000
 4477.00    1.38335   1.40461   -1.000
 4478.00    1.38438   1.38925  279.840
 4479.00    1.35408   1.34781  289.488
 4480.00    1.30831   1.29680   -1.000
 4481.00    1.27042   1.26628  311.645
 4482.00    1.25924   1.27535   -1.000
 4483.00    1.29545   1.31801   -1.000
 4484.00    1.34703   1.36976   -1.000
 4485.00    1.37850   1.40550   -1.000
 4486.00    1.39019   1.41186   -1.000
 4487.00    1.37552   1.38880   -1.000
 4488.00    1.33774   1.35031   -1.000
 4489.00    1.29579   1.32008   -1.000
 4490.00    1.29486   1.31534   -1.000
 4491.00    1.33084   1.33183  292.607
 4492.00    1.35547   1.34761  287.596
 4493.00    1.35467   1.34423   -1.000
 4494.00    1.31328   1.32609   -1.000
 4495.00    1.29939   1.31438   -1.000
 4496.00    1.30500   1.32312   -1.000
 4497.00    1.32215   1.34796   -1.000
 4498.00    1.35009   1.37243   -1.000
 4499.00    1.37058   1.38174  282.224
 4500.00    1.36524   1.37592  284.989
 4501.00    1.34459   1.37254   -1.000
 4502.00    1.35042   1.38851   -1.000
 4503.00    1.39865   1.42091   31.473
 4504.00    1.45348   1.45201   26.546
 4505.00    1.45410   1.46683   26.664
 4506.00    1.43517   1.46234   27.181
 4507.00    1.43107   1.44711   27.481
 4508.00    1.41778   1.43524   27.525
 4509.00    1.43026   1.43517   27.335
 4510.00    1.44290   1.44201   27.140
 4511.00    1.43503   1.44317   27.329
 4512.00    1.41441   1.43179   27.845
 4513.00    1.39831   1.41233   28.351
 4514.00    1.38063   1.39395   28.561
 4515.00    1.37702   1.38328   28.449
 4516.00    1.37834   1.38055   28.413
 4517.00    1.37592   1.38031   28.725
 4518.00    1.36160   1.38065   28.915
 4519.00    1.36507   1.38540   28.489
 4520.00    1.39673   1.39372   27.927
 4521.00    1.40887   1.39711   27.946
 4522.00    1.37826   1.38932   28.556
 4523.00    1.35491   1.37385   29.152
 4524.00    1.34489   1.35736   29.436
 4525.00    1.32560   1.33937   29.903
 4526.00    1.29922   1.31505   30.781
 4527.00    1.27485   1.28494   31.664
 4528.00    1.26595   1.25862   32.097
 4529.00    1.26508   1.24917   31.922
 4530.00    1.28316   1.26074   31.388
 4531.00    1.30652   1.28177   30.814
 4532.00    1.31745   1.29250   30.620
 4533.00    1.28791   1.28390   31.377
 4534.00    1.24910   1.26928   32.437
 4535.00    1.24406   1.27297   32.173
 4536.00    1.29801   1.30690   30.465
 4537.00    1.37423   1.35656   28.660
 4538.00    1.41519   1.39432   27.793
 4539.00    1.41232   1.40465   27.961
 4540.00    1.40753   1.39401   28.605
 4541.00    1.39722   1.38123   28.656
 4542.00    1.39375   1.37804   28.458
 4543.00    1.40311   1.38076   28.340
 4544.00    1.37732   1.38053   38.866
 4545.00    1.42449   1.37594   -2.000
 4546.00    0.75629   1.37114   -2.000
 4547.00    0.05527   1.36435   -2.000
 4548.00   -0.05809   1.34952    0.000
 4549.00    0.65995   1.33141   -1.000
 4550.00    0.74138   1.32558   -1.000
 4551.00    0.58539   1.33699   -1.000
 4552.00    1.29639   1.34936   29.683
 4553.00    1.33644   1.34620   30.117
 4554.00    1.29888   1.33323   30.419
 4555.00    1.30909   1.33064   30.038
 4556.00    1.36050   1.35152   29.001
 4557.00    1.40666   1.38888   27.837
 4558.00    1.43346   1.42363   27.279
 4559.00    1.44666   1.44588   27.367
 4560.00    1.45991   1.45816   27.374
 4561.00    1.45601   1.45994   27.380
 4562.00    1.41584   1.44526   27.950
 4563.00    1.38680   1.41629   28.650
 4564.00    1.37263   1.38978   29.166
 4565.00    1.37676   1.38381   28.932
 4566.00    1.40220   1.40152   28.234
 4567.00    1.43441   1.43066   27.486
 4568.00    1.46127   1.45339   27.161
 4569.00    1.46108   1.45742   27.400
 4570.00    1.41705   1.44245   28.059
 4571.00    1.36781   1.41957   28.800
 4572.00    1.36725   1.40769   28.697
 4573.00    1.40272   1.41844   27.891
 4574.00    1.43543   1.44087   27.439
 4575.00    1.44976   1.45550   27.413
 4576.00    1.45635   1.45638   27.531
 4577.00    1.44581   1.44781   27.688
 4578.00    1.42557   1.43092   28.128
 4579.00    1.39300   1.40540   28.936
 4580.00    1.36091   1.37861   29.569
 4581.00    1.37128   1.36135   29.562
 4582.00    1.37778   1.35524   29.175
 4583.00    1.38451   1.35495   28.935
 4584.00    1.38213   1.35930   28.989
 4585.00    1.38630   1.36964   29.164
 4586.00    1.40083   1.38571   28.826
 4587.00    1.42534   1.40662   28.102
 4588.00    1.45379   1.42752   27.486
 4589.00    1.46369   1.43992   27.385
 4590.00    1.44958   1.43946   27.741
 4591.00    1.43277   1.42843   28.252
 4592.00    1.40878   1.41362   28.752
 4593.00    1.40141   1.40337   28.833
 4594.00    1.39197   1.40065   28.614
 4595.00    1.40799   1.40200   28.385
 4596.00    1.42611   1.40601   28.293
 4597.00    1.43695   1.41311   28.232
 4598.00    1.45606   1.41991   28.169
 4599.00    1.44979   1.42205   28.383
 4600.00    1.43433   1.41960   28.641
 4601.00    1.41718   1.41713   28.741
 4602.00    1.40944   1.41846   28.477
 4603.00    1.40642   1.42230   28.156
 4604.00    1.43118   1.42548   28.162
 4605.00    1.44809   1.42974   28.128
 4606.00    1.45396   1.44120   27.850
 4607.00    1.46352   1.46260   27.323
 4608.00    1.48675   1.48857   26.740
 4609.00    1.50775   1.50859   26.396
 4610.00    1.51301   1.51436   26.467
 4611.00    1.50435   1.50646   26.809
 4612.00    1.47799   1.49317   27.117
 4613.00    1.47180   1.48411   27.306
 4614.00    1.49459   1.48427   27.205
 4615.00    1.50058   1.48988   26.972
 4616.00    1.49622   1.49328   26.848
 4617.00    1.49012   1.49130   26.997
 4618.00    1.48512   1.48602   27.198
 4619.00    1.48983   1.48233   27.198
 4620.00    1.49078   1.48538   26.962
 4621.00    1.50697   1.49575   26.549
 4622.00    1.52565   1.50757   26.493
 4623.00    1.50776   1.51363   26.555
 4624.00    1.50168   1.51245   26.609
 4625.00    1.51481   1.50804   26.833
 4626.00    1.49563   1.50379   26.921
 4627.00    1.49599   1.49974   26.914
 4628.00    1.49317   1.49477   27.067
 4629.00    1.47675   1.49118   27.140
 4630.00    1.49543   1.49336   27.024
 4631.00    1.50876   1.49992   26.729
 4632.00    1.50032   1.50278   26.799
 4633.00    1.48556   1.49631   27.165
 4634.00    1.47468   1.48410   27.478
 4635.00    1.48016   1.47392   27.489
 4636.00    1.48195   1.46738   27.682
 4637.00    1.46710   1.46129   28.037
 4638.00    1.45834   1.45544   28.182
 4639.00    1.45581   1.45367   28.157
 4640.00    1.46606   1.46075   27.726
 4641.00    1.49527   1.47621   27.064
 4642.00    1.52305   1.49139   26.659
 4643.00    1.52798   1.49529   26.716
 4644.00    1.50881   1.48310   27.175
 4645.00    1.47812   1.45779   27.917
 4646.00    1.43919   1.42809   28.696
 4647.00    1.42003   1.40816   28.895
 4648.00    1.43455   1.40904   28.447
 4649.00    1.47475   1.42968   27.793
 4650.00    1.49596   1.45968   27.381
 4651.00    1.50146   1.48576   27.298
 4652.00    1.49304   1.49774   27.245
 4653.00    1.48135   1.49298   27.527
 4654.00    1.47162   1.47667   28.136
 4655.00    1.44517   1.46038   28.500
 4656.00    1.44378   1.45757   28.317
 4657.00    1.46674   1.47638   27.482
 4658.00    1.52790   1.51237   26.440
 4659.00    1.55941   1.54849   25.798
 4660.00    1.56544   1.56624   25.713
 4661.00    1.54686   1.55945   25.998
 4662.00    1.51474   1.53663   26.606
 4663.00    1.50147   1.51009   27.149
 4664.00    1.50576   1.48419   27.264
 4665.00    1.50167   1.45308   27.665
 4666.00    1.45550   1.41400   28.777
 4667.00    1.39707   1.37961   29.990
 4668.00    1.37052   1.36888   30.160
 4669.00    1.41157   1.38784   29.328
 4670.00    1.46707   1.42400   28.125
 4671.00    1.49577   1.45916   27.315
 4672.00    1.51187   1.48212   27.091
 4673.00    1.51375   1.49265   27.097
 4674.00    1.51360   1.49939   27.075
 4675.00    1.52277   1.50958   26.758
 4676.00    1.54589   1.51993   26.357
 4677.00    1.56325   1.51989   26.429
 4678.00    1.53597   1.50474   26.960
 4679.00    1.50140   1.48134   27.504
 4680.00    1.48710   1.46073   27.969
 4681.00    1.47225   1.45118   28.260
 4682.00    1.46808   1.45540   27.976
 4683.00    1.48771   1.46924   27.302
 4684.00    1.52609   1.48394   26.904
 4685.00    1.53775   1.49261   26.948
 4686.00    1.52180   1.49442   26.972
 4687.00    1.51188   1.49243   27.110
 4688.00    1.51799   1.49006   27.130
 4689.00    1.52525   1.48872   27.131
 4690.00    1.51705   1.48767   27.305
 4691.00    1.50117   1.48709   27.380
 4692.00    1.50326   1.49038   27.096
 4693.00    1.53438   1.50065   26.697
 4694.00    1.55087   1.51539   26.122
 4695.00    1.56957   1.52745   25.759
 4696.00    1.56855   1.52860   25.837
 4697.00    1.56521   1.51396   26.517
 4698.00    1.52771   1.48839   27.322
 4699.00    1.50109   1.46482   27.699
 4700.00    1.51630   1.45033   27.533
 4701.00    1.51641   1.44049   27.686
 4702.00    1.49357   1.43222   28.150
 4703.00    1.47538   1.43109   28.340
 4704.00    1.48702   1.44088   27.874
 4705.00    1.51436   1.45479   27.444
 4706.00    1.51526   1.46065   27.738
 4707.00    1.48815   1.45380   28.285
 4708.00    1.46400   1.44286   28.593
 4709.00    1.44813   1.44181   28.489
 4710.00    1.48645   1.45601   27.721
 4711.00    1.53664   1.47721   26.948
 4712.00    1.55917   1.49108   26.629
 4713.00    1.55463   1.49022   26.829
 4714.00    1.52792   1.48301   27.314
 4715.00    1.51087   1.48530   27.376
 4716.00    1.52510   1.50329   26.888
 4717.00    1.55474   1.52997   26.364
 4718.00    1.57337   1.55452   26.163
 4719.00    1.58243   1.57068   26.065
 4720.00    1.58130   1.57751   25.976
 4721.00    1.57381   1.57632   26.162
 4722.00    1.55910   1.57123   26.356
 4723.00    1.55940   1.56942   26.239
 4724.00    1.57216   1.57227   25.966
 4725.00    1.57232   1.56999   25.968
 4726.00    1.55362   1.55179   26.535
 4727.00    1.51138   1.51788   27.511
 4728.00    1.48240   1.48155   28.182
 4729.00    1.48474   1.45851   28.159
 4730.00    1.50695   1.45406   27.885
 4731.00    1.51960   1.46423   27.656
 4732.00    1.51721   1.48338   27.336
 4733.00    1.52991   1.50502   27.087
 4734.00    1.54680   1.52098   26.925
 4735.00    1.55395   1.52593   26.775
 4736.00    1.54605   1.52325   27.014
 4737.00    1.53898   1.52240   27.082
 4738.00    1.55551   1.52863   26.771
 4739.00    1.56372   1.53778   26.739
 4740.00    1.55151   1.54296   26.882
 4741.00    1.55249   1.54407   26.932
 4742.00    1.56582   1.54618   26.743
 4743.00    1.56595   1.55068   26.457
 4744.00    1.57863   1.55609   26.471
 4745.00    1.58049   1.56290   26.501
 4746.00    1.58393   1.57160   26.327
 4747.00    1.58972   1.58129   26.066
 4748.00    1.58513   1.59053   25.987
 4749.00    1.58651   1.59763   26.018
 4750.00    1.59341   1.60129   26.038
 4751.00    1.60033   1.59973   26.208
 4752.00    1.58746   1.59142   26.496
 4753.00    1.57544   1.57804   26.728
 4754.00    1.56194   1.56417   26.915
 4755.00    1.55016   1.55473   26.894
 4756.00    1.54100   1.55319   26.980
 4757.00    1.54224   1.55936   27.171
 4758.00    1.54609   1.56939   27.222
 4759.00    1.55481   1.57835   27.023
 4760.00    1.55829   1.57978   26.951
 4761.00    1.53732   1.56736   27.320
 4762.00    1.51058   1.54198   27.980
 4763.00    1.48703   1.51344   28.383
 4764.00    1.48786   1.49268   28.460
 4765.00    1.48994   1.48430   28.410
 4766.00    1.51383   1.48795   28.226
 4767.00    1.52952   1.50344   27.856
 4768.00    1.53816   1.52991   27.248
 4769.00    1.55606   1.56023   26.840
 4770.00    1.56995   1.58145   26.838
 4771.00    1.55057   1.58692   27.048
 4772.00    1.53638   1.58462   27.289
 4773.00    1.55778   1.58833   27.038
 4774.00    1.58634   1.60281   26.483
 4775.00    1.59659   1.62048   26.255
 4776.00    1.59382   1.63239   26.255
 4777.00    1.58996   1.63640   26.328
 4778.00    1.57666   1.63312   26.489
 4779.00    1.55848   1.62319   26.775
 4780.00    1.55317   1.61108   26.951
 4781.00    1.55117   1.60181   27.028
 4782.00    1.55269   1.59467   27.152
 4783.00    1.55383   1.58710   27.362
 4784.00    1.54625   1.57977   27.379
 4785.00    1.54185   1.57316   27.457
 4786.00    1.52395   1.56550   27.711
 4787.00    1.50758   1.55810   27.886
 4788.00    1.51498   1.55526   27.880
 4789.00    1.52352   1.55795   27.753
 4790.00    1.53748   1.56518   27.585
 4791.00    1.55828   1.57817   27.311
 4792.00    1.57380   1.59883   26.880
 4793.00    1.59022   1.62664   26.297
 4794.00    1.62235   1.65566   25.828
 4795.00    1.64489   1.67563   25.693
 4796.00    1.63277   1.67817   25.913
 4797.00    1.60642   1.66141   26.409
 4798.00    1.57471   1.63253   26.911
 4799.00    1.55957   1.60738   27.253
 4800.00    1.56492   1.60068   27.080
 4801.00    1.58774   1.61445   26.562
 4802.00    1.60941   1.63734   26.160
 4803.00    1.61172   1.65174   26.150
 4804.00    1.59633   1.64674   26.466
 4805.00    1.57490   1.62834   26.810
 4806.00    1.56632   1.61101   27.066
 4807.00    1.56594   1.60283   27.089
 4808.00    1.58009   1.60353   27.026
 4809.00    1.59927   1.61043   26.910
 4810.00    1.60348   1.62012   26.680
 4811.00    1.60387   1.62865   26.482
 4812.00    1.59354   1.63457   26.340
 4813.00    1.59423   1.63924   26.301
 4814.00    1.60771   1.64502   26.243
 4815.00    1.61147   1.65388   26.152
 4816.00    1.61622   1.66598   25.995
 4817.00    1.63378   1.67931   25.833
 4818.00    1.64534   1.69054   25.721
 4819.00    1.64017   1.69700   25.701
 4820.00    1.63412   1.69663   25.701
 4821.00    1.62738   1.68489   25.900
 4822.00    1.60266   1.65860   26.532
 4823.00    1.57329   1.62560   27.067
 4824.00    1.56146   1.60342   27.084
 4825.00    1.59382   1.60381   26.652
 4826.00    1.61288   1.62100   26.229
 4827.00    1.60885   1.63759   26.275
 4828.00    1.59580   1.64180   26.566
 4829.00    1.60063   1.63538   26.752
 4830.00    1.59665   1.62510   26.765
 4831.00    1.58265   1.61447   26.980
 4832.00    1.57517   1.60674   27.054
 4833.00    1.59991   1.60727   26.676
 4834.00    1.62396   1.61748   26.309
 4835.00    1.61673   1.63098   26.181
 4836.00    1.61768   1.63963   26.209
 4837.00    1.62239   1.64047   26.325
 4838.00    1.61101   1.63389   26.658
 4839.00    1.58334   1.62140   27.124
 4840.00    1.57586   1.60836   27.200
 4841.00    1.59171   1.60112   27.148
 4842.00    1.58645   1.60042   27.021
 4843.00    1.58696   1.60398   26.826
 4844.00    1.60119   1.61269   26.566
 4845.00    1.62389   1.62627   26.166
 4846.00    1.64023   1.63637   25.995
 4847.00    1.62962   1.63292   26.442
 4848.00    1.60880   1.61809   26.861
 4849.00    1.57776   1.60681   26.909
 4850.00    1.58338   1.60878   26.574
 4851.00    1.59379   1.61746   26.470
 4852.00    1.59554   1.61941   26.596
 4853.00    1.58604   1.60463   26.815
 4854.00    1.54606   1.57115   27.545
 4855.00    1.50330   1.53005   28.339
 4856.00    1.51219   1.49866   28.387
 4857.00    1.52008   1.47971   28.119
 4858.00    1.49438   1.45197   28.749
 4859.00    1.39815   1.38778   31.010
 4860.00    1.24386   1.28753   34.559
 4861.00    1.14912   1.19479   36.572
 4862.00    1.18420   1.16436   34.815
 4863.00    1.30970   1.21260   -1.000
 4864.00    1.40821   1.30520   -1.000
 4865.00    1.46441   1.39641   28.661
 4866.00    1.50875   1.46551   28.006
 4867.00    1.53441   1.51225   27.709
 4868.00    1.54256   1.53881   27.575
 4869.00    1.53528   1.54324   27.768
 4870.00    1.51894   1.52421   28.484
 4871.00    1.49383   1.49241   29.203
 4872.00    1.48230   1.47215   29.080
 4873.00    1.51291   1.48160   28.316
 4874.00    1.53421   1.51365   27.779
 4875.00    1.54369   1.54640   27.531
 4876.00    1.54789   1.56882   27.374
 4877.00    1.55328   1.58668   27.275
 4878.00    1.57402   1.60828   26.918
 4879.00    1.59264   1.63136   26.614
 4880.00    1.58979   1.64517   26.781
 4881.00    1.57682   1.64284   27.203
 4882.00    1.56131   1.62845   27.406
 4883.00    1.55559   1.61159   27.345
 4884.00    1.55515   1.59670   27.458
 4885.00    1.55709   1.58249   27.849
 4886.00    1.54756   1.57071   28.038
 4887.00    1.54186   1.56574   27.927
 4888.00    1.56082   1.56409   27.871
 4889.00    1.56397   1.55484   28.223
 4890.00    1.53481   1.53467   28.827
 4891.00    1.51411   1.51997   28.752
 4892.00    1.54626   1.53616   27.719
 4893.00    1.61862   1.58924   26.442
 4894.00    1.68216   1.65818   25.599
 4895.00    1.70943   1.71641   25.084
 4896.00    1.71203   1.74985   24.916
 4897.00    1.70611   1.75829   24.948
 4898.00    1.69548   1.74784   25.424
 4899.00    1.65909   1.72599   26.025
 4900.00    1.63647   1.70301   26.360
 4901.00    1.63691   1.68754   26.286
 4902.00    1.63757   1.67897   26.297
 4903.00    1.63037   1.67369   26.585
 4904.00    1.63886   1.67615   26.384
 4905.00    1.66735   1.69201   25.850
 4906.00    1.70369   1.71308   25.597
 4907.00    1.69172   1.72065   25.775
 4908.00    1.66339   1.70415   26.348
 4909.00    1.62862   1.66973   27.099
 4910.00    1.61189   1.63463   27.508
 4911.00    1.61436   1.61711   27.242
 4912.00    1.63117   1.62479   26.762
 4913.00    1.64838   1.65029   26.377
 4914.00    1.66349   1.67988   26.032
 4915.00    1.69807   1.70160   25.786
 4916.00    1.69960   1.70377   25.859
 4917.00    1.65960   1.67474   26.654
 4918.00    1.59599   1.61338   28.049
 4919.00    1.54077   1.53852   29.426
 4920.00    1.50018   1.48258   29.921
 4921.00    1.50657   1.46949   29.124
 4922.00    1.55772   1.49421   28.072
 4923.00    1.59361   1.53009   27.568
 4924.00    1.59700   1.55961   27.490
 4925.00    1.61233   1.58794   27.188
 4926.00    1.64478   1.62457   26.524
 4927.00    1.68030   1.66534   26.016
 4928.00    1.71302   1.70062   25.741
 4929.00    1.72730   1.72693   25.556
 4930.00    1.73557   1.74190   25.399
 4931.00    1.72618   1.73953   25.591
 4932.00    1.67695   1.71601   26.228
 4933.00    1.62714   1.67846   27.155
 4934.00    1.61014   1.64676   27.360
 4935.00    1.62486   1.63603   26.941
 4936.00    1.64631   1.63587   26.851
 4937.00    1.62919   1.62390   27.529
 4938.00    1.59425   1.59871   28.305
 4939.00    1.58895   1.58425   28.209
 4940.00    1.61094   1.60200   27.340
 4941.00    1.66414   1.64779   26.449
 4942.00    1.70675   1.69795   25.908
 4943.00    1.71526   1.73176   25.638
 4944.00    1.72296   1.74354   25.621
 4945.00    1.72098   1.73999   25.782
 4946.00    1.70698   1.73379   25.858
 4947.00    1.71014   1.73590   25.666
 4948.00    1.73338   1.74804   25.369
 4949.00    1.73966   1.76345   25.259
 4950.00    1.74108   1.77414   25.158
 4951.00    1.75379   1.77638   25.255
 4952.00    1.75146   1.77085   25.424
 4953.00    1.72122   1.75992   25.702
 4954.00    1.70590   1.74171   26.020
 4955.00    1.68358   1.70650   26.661
 4956.00    1.62987   1.64791   27.945
 4957.00    1.55608   1.58354   29.129
 4958.00    1.54672   1.55361   28.800
 4959.00    1.61852   1.58153   27.286
 4960.00    1.69050   1.64619   26.248
 4961.00    1.69896   1.70660   25.945
 4962.00    1.68478   1.73851   26.022
 4963.00    1.68004   1.74167   26.219
 4964.00    1.67167   1.72559   26.516
 4965.00    1.65473   1.69921   27.044
 4966.00    1.64581   1.67333   27.431
 4967.00    1.64304   1.65830   27.489
 4968.00    1.64595   1.65557   27.419
 4969.00    1.64338   1.66093   27.234
 4970.00    1.65515   1.67282   26.955
 4971.00    1.67268   1.69112   26.665
 4972.00    1.68087   1.71355   26.351
 4973.00    1.71074   1.73491   26.092
 4974.00    1.72926   1.74867   25.965
 4975.00    1.71777   1.75112   26.104
 4976.00    1.70752   1.74220   26.367
 4977.00    1.69225   1.72381   26.714
 4978.00    1.67104   1.70094   27.141
 4979.00    1.65738   1.67885   27.492
 4980.00    1.64435   1.65546   27.874
 4981.00    1.60945   1.62300   28.714
 4982.00    1.55334   1.58078   29.655
 4983.00    1.52518   1.54386   29.802
 4984.00    1.55265   1.53283   29.319
 4985.00    1.59407   1.55453   28.532
 4986.00    1.63301   1.59835   27.638
 4987.00    1.67575   1.64630   26.923
 4988.00    1.68793   1.68069   26.842
 4989.00    1.66785   1.69150   27.186
 4990.00    1.64355   1.68365   27.487
 4991.00    1.65380   1.67260   27.540
 4992.00    1.66552   1.66970   27.331
 4993.00    1.66559   1.67530   27.195
 4994.00    1.66852   1.68465   27.167
 4995.00    1.67430   1.69524   27.047
 4996.00    1.70197   1.70490   26.910
 4997.00    1.70547   1.70718   27.029
 4998.00    1.67262   1.69440   27.363
 4999.00    1.63112   1.66572   27.890
 5000.00    1.60200   1.63191   28.275
 5001.00    1.60939   1.60904   28.345
 5002.00    1.62844   1.60264   28.117
 5003.00    1.63755   1.60278   27.917
 5004.00    1.62968   1.59575   28.229
 5005.00    1.60545   1.57789   28.907
 5006.00    1.58126   1.56170   29.160
 5007.00    1.59296   1.56608   28.573
 5008.00    1.63701   1.59553   27.720
 5009.00    1.67955   1.63122   27.340
 5010.00    1.66221   1.64744   27.601
 5011.00    1.63716   1.63313   28.364
 5012.00    1.58918   1.59690   29.401
 5013.00    1.54823   1.55847   30.155
 5014.00    1.52951   1.53652   30.136
 5015.00    1.56134   1.53762   29.542
 5016.00    1.60202   1.55124   28.914
 5017.00    1.61075   1.56079   28.719
 5018.00    1.60903   1.56270   28.708
 5019.00    1.62172   1.56811   28.432
 5020.00    1.64788   1.58389   28.183
 5021.00    1.65336   1.60220   28.255
 5022.00    1.64097   1.61525   28.329
 5023.00    1.64653   1.62709   28.200
 5024.00    1.66562   1.64324   27.921
 5025.00    1.67725   1.65905   27.716
 5026.00    1.67835   1.66530   27.801
 5027.00    1.66285   1.66190   27.936
 5028.00    1.66555   1.65983   27.739
 5029.00    1.70170   1.66830   27.253
 5030.00    1.72057   1.68665   26.844
 5031.00    1.73565   1.71028   26.416
 5032.00    1.75861   1.73432   26.092
 5033.00    1.75157   1.74950   26.083
 5034.00    1.72375   1.74415   26.800
 5035.00    1.68354   1.71618   27.843
 5036.00    1.64580   1.68032   28.406
 5037.00    1.63677   1.65321   28.559
 5038.00    1.63215   1.63198   28.872
 5039.00    1.59057   1.60003   29.891
 5040.00    1.52704   1.55530   31.111
 5041.00    1.50350   1.52220   31.317
 5042.00    1.53764   1.53116   30.016
 5043.00    1.63725   1.58625   28.205
 5044.00    1.71188   1.66195   26.965
 5045.00    1.73734   1.72753   26.322
 5046.00    1.79735   1.76376   25.380
 5047.00    1.66613   1.76444   25.892
 5048.00    0.51037   1.73546   -1.000
 5049.00    0.07455   1.69334   -1.000
 5050.00    0.06400   1.65720   -1.000
 5051.00    0.93463   1.63814   -1.000
 5052.00    1.57138   1.64075   27.585
 5053.00    1.71593   1.66712   26.895
 5054.00    1.75687   1.70863   26.377
 5055.00    1.77745   1.74579   26.092
 5056.00    1.79168   1.76702   25.985
 5057.00    1.79083   1.77630   26.014
 5058.00    1.78255   1.78254   26.063
 5059.00    1.78162   1.79111   26.062
 5060.00    1.78252   1.80276   25.908
 5061.00    1.79338   1.81242   25.893
 5062.00    1.79471   1.80941   26.194
 5063.00    1.75288   1.78492   26.899
 5064.00    1.69555   1.74303   27.838
 5065.00    1.66690   1.70242   28.262
 5066.00    1.68562   1.68126   28.012
 5067.00    1.71772   1.68016   27.595
 5068.00    1.71642   1.68812   27.458
 5069.00    1.72538   1.69833   27.336
 5070.00    1.74973   1.70781   27.162
 5071.00    1.74131   1.71158   27.323
 5072.00    1.72038   1.70785   27.543
 5073.00    1.71065   1.70332   27.285
 5074.00    1.72952   1.70496   27.049
 5075.00    1.74803   1.71155   26.988
 5076.00    1.73743   1.71600   26.966
 5077.00    1.73388   1.70931   27.187
 5078.00    1.69825   1.68350   28.037
 5079.00    1.63461   1.64164   29.329
 5080.00    1.60851   1.60473   29.829
 5081.00    1.62361   1.59473   29.333
 5082.00    1.66819   1.61098   28.701
 5083.00    1.67990   1.63750   28.282
 5084.00    1.70037   1.66518   27.771
 5085.00    1.74048   1.69213   27.286
 5086.00    1.75578   1.71468   27.052
 5087.00    1.75829   1.72935   26.994
 5088.00    1.76633   1.73812   26.873
 5089.00    1.76808   1.74617   26.686
 5090.00    1.77385   1.75647   26.532
 5091.00    1.77418   1.76929   26.394
 5092.00    1.80845   1.78396   26.112
 5093.00    1.80951   1.79715   25.867
 5094.00    1.81097   1.80126   26.035
 5095.00    1.92187   1.78787   -1.000
 5096.00    1.82180   1.75513   27.113
 5097.00    1.73060   1.71150   27.761
 5098.00    1.69751   1.67182   28.357
 5099.00    1.68680   1.65163   28.521
 5100.00    1.72707   1.66043   27.928
 5101.00    1.76704   1.69207   27.129
 5102.00    1.76929   1.72589   26.811
 5103.00    1.76670   1.74376   26.916
 5104.00    1.75442   1.74273   27.246
 5105.00    1.74090   1.72995   27.595
 5106.00    1.71755   1.71140   27.934
 5107.00    1.69215   1.69101   28.284
 5108.00    1.67548   1.67428   28.298
 5109.00    1.66786   1.66691   28.134
 5110.00    1.68050   1.67263   27.934
 5111.00    1.70810   1.69168   27.560
 5112.00    1.74499   1.71881   27.212
 5113.00    1.76940   1.74529   26.880
 5114.00    1.78543   1.76563   26.626
 5115.00    1.80523   1.78106   26.470
 5116.00    1.81480   1.79508   26.210
 5117.00    1.82452   1.80803   25.981
 5118.00    1.83052   1.81543   26.017
 5119.00    1.81742   1.81102   26.322
 5120.00    1.79835   1.79267   26.714
 5121.00    1.77901   1.76351   27.150
 5122.00    1.73026   1.72791   27.814
 5123.00    1.69127   1.69174   28.640
 5124.00    1.66975   1.66423   28.936
 5125.00    1.67496   1.65221   28.738
 5126.00    1.69032   1.65286   28.578
 5127.00    1.69811   1.65697   28.413
 5128.00    1.69646   1.65904   28.424
 5129.00    1.69838   1.66198   28.409
 5130.00    1.70816   1.67169   28.086
 5131.00    1.72654   1.68967   27.619
 5132.00    1.74635   1.71137   27.359
 5133.00    1.77067   1.73149   27.105
 5134.00    1.78608   1.74784   26.863
 5135.00    1.79077   1.75748   26.770
 5136.00    1.77409   1.75405   27.176
 5137.00    1.74892   1.73373   27.819
 5138.00    1.70911   1.70420   28.299
 5139.00    1.69299   1.68184   28.394
 5140.00    1.71194   1.67531   28.176
 5141.00    1.72485   1.67776   28.318
 5142.00    1.70118   1.67916   28.749
 5143.00    1.68462   1.67980   28.674
 5144.00    1.70489   1.68515   28.228
 5145.00    1.71839   1.69128   28.074
 5146.00    1.70335   1.68945   28.290
 5147.00    1.71673   1.68264   28.391
 5148.00    1.73739   1.68164   28.098
 5149.00    1.74586   1.68748   27.910
 5150.00    1.72116   1.69029   28.187
 5151.00    1.68754   1.68301   28.684
 5152.00    1.68982   1.67011   28.922
 5153.00    1.69184   1.66223   28.820
 5154.00    1.71316   1.66780   28.321
 5155.00    1.75511   1.69035   27.621
 5156.00    1.78576   1.72581   26.917
 5157.00    1.82600   1.76235   26.388
 5158.00    1.84317   1.78868   26.154
 5159.00    1.83302   1.80093   26.125
 5160.00    1.84093   1.80058   26.202
 5161.00    1.83894   1.78996   26.345
 5162.00    1.81885   1.77129   26.622
 5163.00    1.80664   1.74354   27.022
 5164.00    1.77102   1.69769   27.968
 5165.00    1.67623   1.62120   30.105
 5166.00    1.53616   1.51634   33.177
 5167.00    1.43377   1.41529   35.604
 5168.00    1.42339   1.36349   35.302
 5169.00    1.49752   1.37475   -1.000
 5170.00    1.54474   1.41032   -1.000
 5171.00    1.49532   1.41666   34.505
 5172.00    1.40535   1.38810   36.875
 5173.00    1.41221   1.37706   35.900
 5174.00    1.53603   1.42955   -1.000
 5175.00    1.66950   1.53255   -1.000
 5176.00    1.74932   1.63529   -1.000
 5177.00    1.77652   1.70138   27.788
 5178.00    1.78309   1.72983   27.701
 5179.00    1.79088   1.73107   27.932
 5180.00    1.75642   1.70328   28.815
 5181.00    1.67846   1.63574   30.754
 5182.00    1.55264   1.53153   34.151
 5183.00    1.43052   1.42700   37.043
 5184.00    1.43436   1.37930   35.924
 5185.00    1.54863   1.42118   -1.000
 5186.00    1.68670   1.52542   -1.000
 5187.00    1.76037   1.62886   -1.000
 5188.00    1.77079   1.69295   27.800
 5189.00    1.77375   1.71843   27.672
 5190.00    1.76972   1.71556   27.915
 5191.00    1.71333   1.68983   28.727
 5192.00    1.66840   1.65402   29.545
 5193.00    1.66947   1.63198   29.461
 5194.00    1.70458   1.63586   28.981
 5195.00    1.73351   1.65474   28.541
 5196.00    1.74800   1.67564   28.124
 5197.00    1.77325   1.69887   27.578
 5198.00    1.79388   1.72706   27.096
 5199.00    1.81672   1.75585   26.843
 5200.00    1.83252   1.77653   26.793
 5201.00    1.82279   1.78199   26.978
 5202.00    1.79940   1.76842   27.434
 5203.00    1.76866   1.73526   28.048
 5204.00    1.72371   1.68707   28.900
 5205.00    1.67239   1.63614   29.796
 5206.00    1.65664   1.59758   30.014
 5207.00    1.66149   1.57817   30.159
 5208.00    1.65987   1.57495   30.340
 5209.00    1.65350   1.58705   29.980
 5210.00    1.69693   1.62024   29.065
 5211.00    1.76915   1.67454   27.918
 5212.00    1.82714   1.73446   26.819
 5213.00    1.87849   1.77760   26.199
 5214.00    1.88479   1.78938   26.382
 5215.00    1.82959   1.77332   26.972
 5216.00    1.79326   1.75035   27.346
 5217.00    1.80310   1.74397   27.189
 5218.00    1.83513   1.76280   26.642
 5219.00    1.86560   1.79657   26.213
 5220.00    1.88742   1.82813   25.987
 5221.00    1.90929   1.84481   25.872
 5222.00    1.88734   1.83974   26.149
 5223.00    1.85493   1.80982   26.892
 5224.00    1.79725   1.75512   27.970
 5225.00    1.73362   1.68424   29.266
 5226.00    1.67684   1.62054   30.156
 5227.00    1.67964   1.59516   29.701
 5228.00    1.74788   1.62392   -1.000
 5229.00    1.81853   1.69100   -1.000
 5230.00    1.86853   1.75735   -1.000
 5231.00    1.88219   1.78897   26.296
 5232.00    1.86648   1.77888   26.757
 5233.00    1.83580   1.74813   27.250
 5234.00    1.81523   1.72868   27.261
 5235.00    1.84260   1.74045   -1.000
 5236.00    1.88231   1.77823   -1.000
 5237.00    1.91731   1.82151   25.726
 5238.00    1.93058   1.85252   25.671
 5239.00    1.91945   1.86635   25.742
 5240.00    1.92679   1.86924   25.713
 5241.00    1.94207   1.86819   25.573
 5242.00    1.92856   1.86768   25.587
 5243.00    1.92540   1.87028   25.548
 5244.00    1.93052   1.87349   25.505
 5245.00    1.90581   1.86728   25.945
 5246.00    1.86540   1.84355   26.728
 5247.00    1.82514   1.80890   27.383
 5248.00    1.81324   1.77966   27.524
 5249.00    1.81890   1.76340   27.572
 5250.00    1.80396   1.75679   27.733
 5251.00    1.79906   1.75838   27.643
 5252.00    1.82902   1.76822   27.288
 5253.00    1.84415   1.77951   27.001
 5254.00    1.84391   1.78564   26.972
 5255.00    1.85072   1.79261   26.806
 5256.00    1.89064   1.81408   26.231
 5257.00    1.94374   1.85234   25.528
 5258.00    1.97633   1.88962   25.243
 5259.00    1.97209   1.90294   25.424
 5260.00    1.92758   1.88195   26.067
 5261.00    1.86242   1.82998   27.128
 5262.00    1.79118   1.75926   28.408
 5263.00    1.74831   1.68566   29.443
 5264.00    1.70830   1.62477   30.101
 5265.00    1.68488   1.58935   -1.000
 5266.00    1.70295   1.58290   -1.000
 5267.00    1.73991   1.59108   -1.000
 5268.00    1.72837   1.58800   -1.000
 5269.00    1.66125   1.56524   -1.000
 5270.00    1.64968   1.55078   -1.000
 5271.00    1.73234   1.57832   -1.000
 5272.00    1.82302   1.64370   -1.000
 5273.00    1.86194   1.70750   -1.000
 5274.00    1.85982   1.73917   -1.000
 5275.00    1.85258   1.74901   -1.000
 5276.00    1.87500   1.76840   -1.000
 5277.00    1.92604   1.81025   -1.000
 5278.00    1.97098   1.85784   -1.000
 5279.00    1.97910   1.88281   25.350
 5280.00    1.95000   1.87316   25.909
 5281.00    1.90683   1.83974   26.583
 5282.00    1.87484   1.80188   27.097
 5283.00    1.85732   1.77839   27.275
 5284.00    1.87874   1.78464   -1.000
 5285.00    1.95099   1.82430   -1.000
 5286.00    1.97768   1.88047   -1.000
 5287.00    1.98221   1.92668   24.925
 5288.00    2.01330   1.95033   25.023
 5289.00    2.00439   1.95908   25.040
 5290.00    2.00112   1.96329   24.909
 5291.00    1.99969   1.96410   24.843
 5292.00    1.99411   1.95867   24.965
 5293.00    1.99885   1.94723   25.192
 5294.00    1.99053   1.92995   25.516
 5295.00    1.94361   1.90085   26.165
 5296.00    1.88542   1.85510   27.138
 5297.00    1.82793   1.80382   27.912
 5298.00    1.82255   1.77149   27.851
 5299.00    1.85722   1.77334   27.200
 5300.00    1.88455   1.79960   26.666
 5301.00    1.88352   1.82951   26.457
 5302.00    1.90817   1.85615   26.154
 5303.00    1.96367   1.88676   25.493
 5304.00    2.00453   1.92237   24.993
 5305.00    2.03701   1.95108   24.881
 5306.00    2.02070   1.96113   25.089
 5307.00    1.99011   1.95627   25.314
 5308.00    1.99725   1.95213   25.196
 5309.00    2.01135   1.95846   24.940
 5310.00    2.04630   1.97077   24.767
 5311.00    2.03914   1.97789   24.769
 5312.00    2.03332   1.97424   24.896
 5313.00    2.02488   1.96239   25.009
 5314.00    2.01366   1.94555   25.181
 5315.00    2.00072   1.92516   25.424
 5316.00    1.98421   1.90540   25.654
 5317.00    1.97916   1.89457   25.689
 5318.00    1.99483   1.89810   -1.000
 5319.00    2.00391   1.91063   -1.000
 5320.00    2.00220   1.92015   25.469
 5321.00    1.99024   1.91831   25.640
 5322.00    1.96742   1.90254   25.928
 5323.00    1.94227   1.87584   26.366
 5324.00    1.93862   1.84682   -1.000
 5325.00    1.94206   1.81953   -1.000
 5326.00    1.90566   1.78344   -1.000
 5327.00    1.82330   1.72885   -1.000
 5328.00    1.74595   1.67458   29.999
 5329.00    1.75681   1.66169   -1.000
 5330.00    1.86561   1.70952   -1.000
 5331.00    1.94589   1.78884   -1.000
 5332.00    1.95622   1.85350   -1.000
 5333.00    1.98165   1.88883   25.825
 5334.00    2.01554   1.90820   -1.000
 5335.00    2.02002   1.92234   -1.000
 5336.00    2.00306   1.92999   25.528
 5337.00    1.99420   1.92571   25.697
 5338.00    1.97784   1.90691   25.964
 5339.00    1.95892   1.87576   26.576
 5340.00    1.91640   1.84289   27.074
 5341.00    1.91134   1.82809   26.935
 5342.00    1.95077   1.84321   -1.000
 5343.00    1.98495   1.87554   -1.000
 5344.00    1.99545   1.89996   -1.000
 5345.00    1.98117   1.90536   25.849
 5346.00    1.97366   1.89749   26.018
 5347.00    1.97641   1.88506   26.150
 5348.00    1.96354   1.87341   26.373
 5349.00    1.95079   1.86865   26.459
 5350.00    1.96456   1.87900   26.105
 5351.00    2.00364   1.90513   -1.000
 5352.00    2.02930   1.93619   -1.000
 5353.00    2.04858   1.96238   25.057
 5354.00    2.06315   1.98372   24.877
 5355.00    2.07626   2.00376   24.571
 5356.00    2.08631   2.02166   24.370
 5357.00    2.08975   2.03235   24.368
 5358.00    2.08410   2.03384   24.405
 5359.00    2.07978   2.02703   24.488
 5360.00    2.06591   2.01147   24.752
 5361.00    2.04188   1.98780   25.156
 5362.00    2.01901   1.96118   25.533
 5363.00    2.00101   1.93811   25.736
 5364.00    1.98565   1.92157   25.887
 5365.00    1.97603   1.91130   26.042
 5366.00    1.98572   1.90579   25.990
 5367.00    1.99193   1.90113   -1.000
 5368.00    1.98184   1.88791   -1.000
 5369.00    1.94919   1.85702   -1.000
 5370.00    1.89316   1.81443   27.624
 5371.00    1.86770   1.78559   27.804
 5372.00    1.91903   1.79652   -1.000
 5373.00    1.99858   1.84883   -1.000
 5374.00    2.04843   1.91634   -1.000
 5375.00    2.07986   1.96804   -1.000
 5376.00    2.08474   1.99167   -1.000
 5377.00    2.07913   1.99429   24.821
 5378.00    2.08161   1.98941   -1.000
 5379.00    2.05644   1.98280   24.998
 5380.00    2.03598   1.97277   25.235
 5381.00    2.02869   1.95828   25.485
 5382.00    2.03137   1.94393   -1.000
 5383.00    2.02446   1.93739   25.623
 5384.00    2.02117   1.94262   25.513
 5385.00    2.04962   1.95583   -1.000
 5386.00    2.06047   1.96798   -1.000
 5387.00    2.06588   1.97051   -1.000
 5388.00    2.04140   1.96030   25.506
 5389.00    2.01157   1.94013   25.882
 5390.00    1.99896   1.91674   26.187
 5391.00    2.00379   1.89717   -1.000
 5392.00    1.99579   1.88488   -1.000
 5393.00    1.98131   1.87841   -1.000
 5394.00    1.97296   1.87210   -1.000
 5395.00    1.95698   1.85813   -1.000
 5396.00    1.91801   1.83530   27.464
 5397.00    1.88882   1.81690   27.549
 5398.00    1.91867   1.82077   -1.000
 5399.00    1.98751   1.84900   -1.000
 5400.00    2.03526   1.88463   -1.000
 5401.00    2.03226   1.90906   -1.000
 5402.00    2.01423   1.91127   -1.000
 5403.00    1.98412   1.88615   -1.000
 5404.00    1.92329   1.83868   27.631
 5405.00    1.89264   1.78986   -1.000
 5406.00    1.90249   1.76688   -1.000
 5407.00    1.93380   1.77843   -1.000
 5408.00    1.95989   1.80524   -1.000
 5409.00    1.94695   1.82380   -1.000
 5410.00    1.93569   1.83427   -1.000
 5411.00    1.97212   1.85301   -1.000
 5412.00    2.03121   1.88607   -1.000
 5413.00    2.05618   1.91904   -1.000
 5414.00    2.04504   1.93888   -1.000
 5415.00    2.04090   1.95076   -1.000
 5416.00    2.05765   1.96547   -1.000
 5417.00    2.07232   1.98193   -1.000
 5418.00    2.06449   1.98942   25.282
 5419.00    2.05313   1.98316   25.520
 5420.00    2.05288   1.97064   25.686
 5421.00    2.06125   1.96107   -1.000
 5422.00    2.06213   1.95456   -1.000
 5423.00    2.03569   1.94600   -1.000
 5424.00    2.01859   1.93794   26.066
 5425.00    2.03705   1.94298   -1.000
 5426.00    2.06009   1.96339   -1.000
 5427.00    2.07236   1.97778   -1.000
 5428.00    2.02848   1.96265   26.079
 5429.00    1.97321   1.92237   26.913
 5430.00    1.95337   1.88698   27.055
 5431.00    1.98167   1.87746   -1.000
 5432.00    2.00213   1.88305   -1.000
 5433.00    1.98048   1.88115   -1.000
 5434.00    1.95506   1.86767   -1.000
 5435.00    1.94895   1.86001   -1.000
 5436.00    1.97768   1.87648   -1.000
 5437.00    2.01935   1.91790   -1.000
 5438.00    2.06804   1.96983   -1.000
 5439.00    2.09955   2.01513   25.005
 5440.00    2.11325   2.04429   24.784
 5441.00    2.12022   2.05774   24.725
 5442.00    2.11170   2.05861   24.721
 5443.00    2.10123   2.04574   24.954
 5444.00    2.07133   2.01240   25.578
 5445.00    1.99834   1.95826   26.600
 5446.00    1.92764   1.90065   27.511
 5447.00    1.90641   1.86820   27.431
 5448.00    1.96135   1.87819   26.605
 5449.00    2.02148   1.92058   -1.000
 5450.00    2.05335   1.96685   25.545
 5451.00    2.06186   1.99266   25.527
 5452.00    2.05013   1.99012   25.725
 5453.00    2.01622   1.96328   26.286
 5454.00    1.95889   1.92042   27.033
 5455.00    1.92923   1.87986   27.644
 5456.00    1.94612   1.86768   27.351
 5457.00    1.99910   1.89638   -1.000
 5458.00    2.06314   1.94817   -1.000
 5459.00    2.07453   1.98930   25.495
 5460.00    2.05762   1.99833   25.753
 5461.00    2.04537   1.97861   26.224
 5462.00    2.01676   1.94789   26.597
 5463.00    2.01250   1.92618   26.765
 5464.00    2.03509   1.92535   -1.000
 5465.00    2.04697   1.94205   -1.000
 5466.00    2.05854   1.96334   -1.000
 5467.00    2.07523   1.97950   -1.000
 5468.00    2.08270   1.98854   -1.000
 5469.00    2.06934   1.98988   25.828
 5470.00    2.05845   1.98339   26.099
 5471.00    2.06321   1.97185   -1.000
 5472.00    2.05567   1.95892   -1.000
 5473.00    2.03105   1.94444   26.595
 5474.00    2.00953   1.92429   26.965
 5475.00    1.98886   1.89545   -1.000
 5476.00    1.96113   1.86428   -1.000
 5477.00    1.95561   1.84911   -1.000
 5478.00    1.98951   1.86436   -1.000
 5479.00    2.03460   1.89837   -1.000
 5480.00    2.03727   1.92136   -1.000
 5481.00    2.02889   1.92147   -1.000
 5482.00    2.02240   1.91622   -1.000
 5483.00    2.03715   1.92764   -1.000
 5484.00    2.06871   1.95722   -1.000
 5485.00    2.09650   1.98531   -1.000
 5486.00    2.08420   1.99323   -1.000
 5487.00    2.06559   1.98083   26.225
 5488.00    2.05212   1.96358   -1.000
 5489.00    2.04371   1.95715   26.421
 5490.00    2.04443   1.96427   26.253
 5491.00    2.06670   1.97698   -1.000
 5492.00    2.07943   1.98595   -1.000
 5493.00    2.08149   1.98810   -1.000
 5494.00    2.08930   1.98663   -1.000
 5495.00    2.09337   1.98446   -1.000
 5496.00    2.06959   1.98058   26.180
 5497.00    2.04106   1.97584   26.368
 5498.00    2.05114   1.97675   26.260
 5499.00    2.07933   1.98427   -1.000
 5500.00    2.07491   1.98658   26.126
 5501.00    2.05129   1.97451   26.534
 5502.00    2.04951   1.95565   -1.000
 5503.00    2.06179   1.94398   -1.000
 5504.00    2.07024   1.94156   -1.000
 5505.00    2.05474   1.93825   -1.000
 5506.00    2.02245   1.92951   -1.000
 5507.00    2.01813   1.92519   -1.000
 5508.00    2.04876   1.93434   -1.000
 5509.00    2.07990   1.95047   -1.000
 5510.00    2.07030   1.95692   -1.000
 5511.00    2.03573   1.94451   -1.000
 5512.00    2.00676   1.92059   27.275
 5513.00    2.00302   1.90144   -1.000
 5514.00    2.01872   1.89931   -1.000
 5515.00    2.03583   1.91496   -1.000
 5516.00    2.07309   1.94081   -1.000
 5517.00    2.10341   1.97021   -1.000
 5518.00    2.12758   1.99906   -1.000
 5519.00    2.14175   2.02274   -1.000
 5520.00    2.15080   2.03605   -1.000
 5521.00    2.13626   2.03831   -1.000
 5522.00    2.13949   2.03479   -1.000
 5523.00    2.14010   2.03022   -1.000
 5524.00    2.11779   2.02213   -1.000
 5525.00    2.09188   2.00362   -1.000
 5526.00    2.05936   1.97156   -1.000
 5527.00    2.00962   1.93413   27.316
 5528.00    1.99477   1.90958   -1.000
 5529.00    2.03835   1.91320   -1.000
 5530.00    2.08323   1.94255   -1.000
 5531.00    2.10106   1.97727   -1.000
 5532.00    2.11209   1.99690   -1.000
 5533.00    2.10163   1.99640   -1.000
 5534.00    2.08354   1.98500   -1.000
 5535.00    2.08773   1.97537   -1.000
 5536.00    2.09433   1.97461   -1.000
 5537.00    2.11590   1.98262   -1.000
 5538.00    2.12740   1.99585   -1.000
 5539.00    2.14308   2.01197   -1.000
 5540.00    2.15720   2.02856   -1.000
 5541.00    2.15486   2.03931   -1.000
 5542.00    2.14231   2.03795   -1.000
 5543.00    2.12300   2.02639   -1.000
 5544.00    2.11896   2.01388   -1.000
 5545.00    2.11885   2.00846   -1.000
 5546.00    2.12955   2.01207   -1.000
 5547.00    2.14576   2.02357   -1.000
 5548.00    2.14844   2.04127   -1.000
 5549.00    2.16873   2.06017   -1.000
 5550.00    2.18742   2.07288   -1.000
 5551.00    2.18432   2.07503   -1.000
 5552.00    2.17496   2.06711   -1.000
 5553.00    2.14582   2.05281   -1.000
 5554.00    2.12352   2.03898   25.920
 5555.00    2.11935   2.03223   -1.000
 5556.00    2.13703   2.03322   -1.000
 5557.00    2.14919   2.03695   -1.000
 5558.00    2.14551   2.03940   -1.000
 5559.00    2.14390   2.04037   -1.000
 5560.00    2.13867   2.04006   -1.000
 5561.00    2.14273   2.03570   -1.000
 5562.00    2.13074   2.02547   -1.000
 5563.00    2.11013   2.01281   -1.000
 5564.00    2.10859   2.00298   -1.000
 5565.00    2.10761   1.99751   -1.000
 5566.00    2.09661   1.99435   -1.000
 5567.00    2.09626   1.99182   -1.000
 5568.00    2.09594   1.99060   -1.000
 5569.00    2.09354   1.99170   -1.000
 5570.00    2.09939   1.99431   -1.000
 5571.00    2.10038   1.99558   -1.000
 5572.00    2.09118   1.99415   -1.000
 5573.00    2.06003   1.99403   26.423
 5574.00    1.96228   2.00091   26.154
 5575.00    1.54079   2.01444   -1.000
 5576.00    0.70791   2.02827   -1.000
 5577.00   -0.05647   2.03789    0.000
 5578.00    0.16750   2.04472   -1.000
 5579.00    0.94065   2.05101   -1.000
 5580.00    1.58552   2.05526   -1.000
 5581.00    1.97851   2.05489   26.438
 5582.00    2.11421   2.04959   26.137
 5583.00    2.12567   2.04071   26.057
 5584.00    2.13743   2.02665   -1.000
 5585.00    2.11761   2.00088   -1.000
 5586.00    2.05929   1.96067   -1.000
 5587.00    2.01180   1.91633   -1.000
 5588.00    2.00960   1.88596   -1.000
 5589.00    2.02341   1.88183   -1.000
 5590.00    2.03622   1.90160   -1.000
 5591.00    2.06615   1.93058   -1.000
 5592.00    2.08678   1.95363   -1.000
 5593.00    2.08191   1.96614   -1.000
 5594.00    2.07338   1.97639   -1.000
 5595.00    2.10128   1.99369   -1.000
 5596.00    2.12892   2.01398   -1.000
 5597.00    2.12048   2.02182   -1.000
 5598.00    2.07758   2.00927   27.004
 5599.00    2.06401   1.98494   27.314
 5600.00    2.06585   1.96077   -1.000
 5601.00    2.06960   1.94249   -1.000
 5602.00    2.05031   1.93546   -1.000
 5603.00    2.05494   1.94839   -1.000
 5604.00    2.10208   1.98512   -1.000
 5605.00    2.15475   2.03503   -1.000
 5606.00    2.18278   2.07858   -1.000
 5607.00    2.19614   2.10377   -1.000
 5608.00    2.19221   2.11249   25.475
 5609.00    2.19385   2.11325   25.527
 5610.00    2.19080   2.11387   25.510
 5611.00    2.19533   2.11557   25.434
 5612.00    2.19023   2.10994   25.533
 5613.00    2.15708   2.08391   26.024
 5614.00    2.09693   2.03442   26.902
 5615.00    2.06024   1.98013   27.566
 5616.00    2.06396   1.95133   -1.000
 5617.00    2.10710   1.96094   -1.000
 5618.00    2.13771   1.99227   -1.000
 5619.00    2.14428   2.02120   -1.000
 5620.00    2.15696   2.03918   -1.000
 5621.00    2.16257   2.04997   -1.000
 5622.00    2.16098   2.05188   -1.000
 5623.00    2.13389   2.03782   -1.000
 5624.00    2.10204   2.01183   -1.000
 5625.00    2.09067   1.99213   -1.000
 5626.00    2.10733   1.99447   -1.000
 5627.00    2.14932   2.01735   -1.000
 5628.00    2.17213   2.04613   -1.000
 5629.00    2.18064   2.06977   -1.000
 5630.00    2.20135   2.08621   -1.000
 5631.00    2.20994   2.09532   -1.000
 5632.00    2.20712   2.09627   -1.000
 5633.00    2.20111   2.08922   -1.000
 5634.00    2.18706   2.07617   -1.000
 5635.00    2.17783   2.06003   -1.000
 5636.00    2.16129   2.04368   -1.000
 5637.00    2.13832   2.03080   -1.000
 5638.00    2.14131   2.02480   -1.000
 5639.00    2.15317   2.02419   -1.000
 5640.00    2.15049   2.02318   -1.000
 5641.00    2.14419   2.01970   -1.000
 5642.00    2.14539   2.01843   -1.000
 5643.00    2.15756   2.02398   -1.000
 5644.00    2.15074   2.03490   -1.000
 5645.00    2.15831   2.04634   -1.000
 5646.00    2.16874   2.05526   -1.000
 5647.00    2.17896   2.06029   -1.000
 5648.00    2.18576   2.06016   -1.000
 5649.00    2.18784   2.05648   -1.000
 5650.00    2.19573   2.05502   -1.000
 5651.00    2.19570   2.05994   -1.000
 5652.00    2.20731   2.06774   -1.000
 5653.00    2.20938   2.07023   -1.000
 5654.00    2.19410   2.06295   -1.000
 5655.00    2.17335   2.04704   -1.000
 5656.00    2.15129   2.02281   -1.000
 5657.00    2.09822   1.98998   -1.000
 5658.00    2.04776   1.95757   -1.000
 5659.00    2.05927   1.94284   -1.000
 5660.00    2.09895   1.95293   -1.000
 5661.00    2.12409   1.97456   -1.000
 5662.00    2.12374   1.99134   -1.000
 5663.00    2.12756   2.00461   -1.000
 5664.00    2.14764   2.02348   -1.000
 5665.00    2.15468   2.04314   -1.000
 5666.00    2.15396   2.05079   -1.000
 5667.00    2.14193   2.04413   -1.000
 5668.00    2.13491   2.03355   -1.000
 5669.00    2.13895   2.03049   -1.000
 5670.00    2.15476   2.03855   -1.000
 5671.00    2.17979   2.05511   -1.000
 5672.00    2.19701   2.07607   -1.000
 5673.00    2.21578   2.09584   -1.000
 5674.00    2.22732   2.10872   -1.000
 5675.00    2.22626   2.11378   -1.000
 5676.00    2.21864   2.11467   -1.000
 5677.00    2.21134   2.11387   -1.000
 5678.00    2.20522   2.11001   -1.000
 5679.00    2.21057   2.10104   -1.000
 5680.00    2.21190   2.08720   -1.000
 5681.00    2.18615   2.06972   -1.000
 5682.00    2.16633   2.05030   -1.000
 5683.00    2.16929   2.03446   -1.000
 5684.00    2.17814   2.02914   -1.000
 5685.00    2.17737   2.03293   -1.000
 5686.00    2.16269   2.03611   -1.000
 5687.00    2.14804   2.03383   -1.000
 5688.00    2.15125   2.03225   -1.000
 5689.00    2.17216   2.04006   -1.000
 5690.00    2.19079   2.05841   -1.000
 5691.00    2.21902   2.08027   -1.000
 5692.00    2.22161   2.09782   -1.000
 5693.00    2.22036   2.10741   -1.000
 5694.00    2.23006   2.10947   -1.000
 5695.00    2.22247   2.10679   -1.000
 5696.00    2.20614   2.10107   -1.000
 5697.00    2.20446   2.09146   -1.000
 5698.00    2.18521   2.07756   -1.000
 5699.00    2.16510   2.06172   -1.000
 5700.00    2.15848   2.04693   -1.000
 5701.00    2.14356   2.03537   -1.000
 5702.00    2.13621   2.03069   -1.000
 5703.00    2.15252   2.03543   -1.000
 5704.00    2.13673   2.04356   -1.000
 5705.00    2.13605   2.04333   -1.000
 5706.00    2.13290   2.02885   -1.000
 5707.00    2.10550   2.00442   -1.000
 5708.00    2.08068   1.97923   -1.000
 5709.00    2.06780   1.96098   -1.000
 5710.00    2.06342   1.95426   -1.000
 5711.00    2.07174   1.96194   -1.000
 5712.00    2.10759   1.98488   -1.000
 5713.00    2.15549   2.02011   -1.000
 5714.00    2.19458   2.05801   -1.000
 5715.00    2.20930   2.08699   -1.000
 5716.00    2.22888   2.10399   -1.000
 5717.00    2.22754   2.11409   -1.000
 5718.00    2.21120   2.12223   -1.000
 5719.00    2.21717   2.13108   -1.000
 5720.00    2.23057   2.14162   -1.000
 5721.00    2.25092   2.15288   -1.000
 5722.00    2.26492   2.16279   -1.000
 5723.00    2.26069   2.16927   -1.000
 5724.00    2.25388   2.16949   -1.000
 5725.00    2.23931   2.16047   25.512
 5726.00    2.20979   2.14386   25.780
 5727.00    2.19029   2.12828   25.991
 5728.00    2.19488   2.12253   25.880
 5729.00    2.20864   2.12596   25.721
 5730.00    2.20873   2.12965   25.773
 5731.00    2.20608   2.12886   25.903
 5732.00    2.21894   2.12937   -1.000
 5733.00    2.24798   2.13837   -1.000
 5734.00    2.26585   2.15340   -1.000
 5735.00    2.25762   2.16434   -1.000
 5736.00    2.25040   2.16514   -1.000
 5737.00    2.23755   2.15907   25.525
 5738.00    2.24394   2.15272   -1.000
 5739.00    2.24993   2.14939   -1.000
 5740.00    2.23915   2.14820   -1.000
 5741.00    2.23774   2.14707   -1.000
 5742.00    2.23766   2.14629   -1.000
 5743.00    2.23683   2.14891   -1.000
 5744.00    2.25795   2.15661   -1.000
 5745.00    2.25605   2.16483   -1.000
 5746.00    2.25183   2.16524   -1.000
 5747.00    2.24569   2.15591   -1.000
 5748.00    2.23543   2.14613   -1.000
 5749.00    2.23158   2.14615   -1.000
 5750.00    2.24437   2.15259   -1.000
 5751.00    2.23844   2.15031   -1.000
 5752.00    2.21577   2.13024   -1.000
 5753.00    2.18561   2.10220   -1.000
 5754.00    2.17620   2.08774   -1.000
 5755.00    2.21624   2.09969   -1.000
 5756.00    2.25387   2.13103   -1.000
 5757.00    2.27815   2.16245   -1.000
 5758.00    2.27806   2.17726   -1.000
 5759.00    2.27486   2.17036   -1.000
 5760.00    2.24678   2.14747   -1.000
 5761.00    2.21663   2.12027   -1.000
 5762.00    2.20022   2.10201   -1.000
 5763.00    2.19290   2.10340   -1.000
 5764.00    2.22660   2.12641   -1.000
 5765.00    2.24994   2.15955   -1.000
 5766.00    2.25072   2.18592   25.244
 5767.00    2.26430   2.19816   25.217
 5768.00    2.26857   2.19993   25.175
 5769.00    2.27320   2.19623   25.218
 5770.00    2.26725   2.18947   25.301
 5771.00    2.24591   2.18116   25.437
 5772.00    2.23347   2.17253   25.595
 5773.00    2.22526   2.16462   25.667
 5774.00    2.22440   2.15877   25.700
 5775.00    2.21996   2.15672   25.654
 5776.00    2.21828   2.15885   25.530
 5777.00    2.20063   2.16085   25.496
 5778.00    2.16226   2.15406   25.568
 5779.00    2.10595   2.13207   25.916
 5780.00    2.04672   2.09760   26.490
 5781.00    2.03494   2.06253   26.861
 5782.00    2.07166   2.03961   26.846
 5783.00    2.11925   2.03264   -1.000
 5784.00    2.15217   2.03583   -1.000
 5785.00    2.16684   2.04469   -1.000
 5786.00    2.18465   2.06236   -1.000
 5787.00    2.22267   2.08943   -1.000
 5788.00    2.24546   2.11622   -1.000
 5789.00    2.25042   2.13205   -1.000
 5790.00    2.24264   2.13576   -1.000
 5791.00    2.23649   2.13551   -1.000
 5792.00    2.23571   2.14161   -1.000
 5793.00    2.23558   2.15774   25.426
 5794.00    2.24184   2.17750   25.271
 5795.00    2.25389   2.18989   25.241
 5796.00    2.21016   2.18860   25.378
 5797.00    2.19147   2.17824   25.543
 5798.00    2.21460   2.17218   25.448
 5799.00    2.26200   2.18068   -1.000
 5800.00    2.30805   2.20090   -1.000
 5801.00    2.30822   2.22000   -1.000
 5802.00    2.30140   2.22579   24.893
 5803.00    2.29082   2.21521   -1.000
 5804.00    2.28020   2.19585   -1.000
 5805.00    2.27823   2.18007   -1.000
 5806.00    2.27490   2.17542   -1.000
 5807.00    2.28308   2.18071   -1.000
 5808.00    2.28390   2.19034   -1.000
 5809.00    2.27664   2.19998   25.194
 5810.00    2.29085   2.20797   -1.000
 5811.00    2.30658   2.21319   -1.000
 5812.00    2.29000   2.21358   25.008
 5813.00    2.29070   2.20721   -1.000
 5814.00    2.29485   2.19443   -1.000
 5815.00    2.27459   2.17978   -1.000
 5816.00    2.26997   2.17182   -1.000
 5817.00    2.28304   2.17808   -1.000
 5818.00    2.29833   2.19704   -1.000
 5819.00    2.30122   2.21829   -1.000
 5820.00    2.31290   2.23214   24.738
 5821.00    2.31444   2.23591   24.766
 5822.00    2.31232   2.23255   24.851
 5823.00    2.31064   2.22714   -1.000
 5824.00    2.31020   2.22398   -1.000
 5825.00    2.31306   2.22445   -1.000
 5826.00    2.31661   2.22735   -1.000
 5827.00    2.31617   2.23122   -1.000
 5828.00    2.32572   2.23567   -1.000
 5829.00    2.32595   2.24012   -1.000
 5830.00    2.32411   2.24287   -1.000
 5831.00    2.31830   2.24245   24.691
 5832.00    2.30555   2.23880   24.732
 5833.00    2.29843   2.23242   24.889
 5834.00    2.30756   2.22459   -1.000
 5835.00    2.32659   2.21875   -1.000
 5836.00    2.32418   2.21766   -1.000
 5837.00    2.32197   2.21969   -1.000
 5838.00    2.32693   2.22256   -1.000
 5839.00    2.32677   2.22776   -1.000
 5840.00    2.32040   2.23684   -1.000
 5841.00    2.30877   2.24701   24.568
 5842.00    2.31320   2.25336   24.562
 5843.00    2.32872   2.25277   24.638
 5844.00    2.32582   2.24491   -1.000
 5845.00    2.31366   2.23141   -1.000
 5846.00    2.29624   2.21566   -1.000
 5847.00    2.27831   2.20239   25.146
 5848.00    2.26426   2.19553   25.132
 5849.00    2.25584   2.19449   25.164
 5850.00    2.26519   2.19295   25.300
 5851.00    2.26485   2.18353   25.458
 5852.00    2.24656   2.16579   25.702
 5853.00    2.22263   2.14791   25.839
 5854.00    2.22187   2.13763   -1.000
 5855.00    2.23934   2.13202   -1.000
 5856.00    2.22387   2.12115   -1.000
 5857.00    2.19702   2.10400   -1.000
 5858.00    2.20359   2.09341   -1.000
 5859.00    2.23147   2.10081   -1.000
 5860.00    2.25362   2.12274   -1.000
 5861.00    2.26463   2.14581   -1.000
 5862.00    2.26418   2.16110   -1.000
 5863.00    2.26377   2.16890   -1.000
 5864.00    2.26198   2.17201   -1.000
 5865.00    2.25431   2.17055   25.626
 5866.00    2.25397   2.16544   -1.000
 5867.00    2.25938   2.16298   -1.000
 5868.00    2.27089   2.17028   -1.000
 5869.00    2.28592   2.18597   -1.000
 5870.00    2.30170   2.20077   -1.000
 5871.00    2.30115   2.20743   -1.000
 5872.00    2.30704   2.20596   -1.000
 5873.00    2.31227   2.20113   -1.000
 5874.00    2.29004   2.19706   -1.000
 5875.00    2.28847   2.19446   -1.000
 5876.00    2.30160   2.19107   -1.000
 5877.00    2.29202   2.18383   -1.000
 5878.00    2.26756   2.17164   -1.000
 5879.00    2.25824   2.15688   -1.000
 5880.00    2.25238   2.14430   -1.000
 5881.00    2.25386   2.13759   -1.000
 5882.00    2.27300   2.13565   -1.000
 5883.00    2.26522   2.13370   -1.000
 5884.00    2.25616   2.12963   -1.000
 5885.00    2.24991   2.12308   -1.000
 5886.00    2.21317   2.10310   -1.000
 5887.00    2.08991   2.04716   27.105
 5888.00    1.80387   1.94530   -1.000
 5889.00    1.48191   1.82636   -1.000
 5890.00    1.39773   1.74836   -1.000
 5891.00    1.59753   1.74914   -1.000
 5892.00    1.85644   1.80856   29.426
 5893.00    1.95929   1.86569   28.799
 5894.00    1.87180   1.87416   29.059
 5895.00    1.68633   1.84110   -1.000
 5896.00    1.60966   1.81646   -1.000
 5897.00    1.77612   1.84309   29.049
 5898.00    1.99030   1.91506   28.007
 5899.00    2.13048   1.99365   -1.000
 5900.00    2.19687   2.05331   -1.000
 5901.00    2.21767   2.09300   -1.000
 5902.00    2.23339   2.11833   -1.000
 5903.00    2.24414   2.13266   -1.000
 5904.00    2.25549   2.13910   -1.000
 5905.00    2.25302   2.14162   -1.000
 5906.00    2.24105   2.14449   -1.000
 5907.00    2.24611   2.15056   -1.000
 5908.00    2.25093   2.15906   -1.000
 5909.00    2.25087   2.16673   25.885
 5910.00    2.25456   2.17109   25.929
 5911.00    2.25681   2.17005   -1.000
 5912.00    2.24554   2.16046   26.048
 5913.00    2.21405   2.14181   26.405
 5914.00    2.19786   2.12043   26.622
 5915.00    2.19893   2.10676   -1.000
 5916.00    2.20736   2.10695   -1.000
 5917.00    2.22051   2.11914   -1.000
 5918.00    2.23346   2.13697   -1.000
 5919.00    2.22979   2.15369   26.162
 5920.00    2.23081   2.16430   26.067
 5921.00    2.23342   2.16758   26.068
 5922.00    2.23468   2.16682   26.093
 5923.00    2.23109   2.16740   25.998
 5924.00    2.23417   2.17211   25.913
 5925.00    2.25130   2.17922   25.863
 5926.00    2.24874   2.18446   25.842
 5927.00    2.26434   2.18345   25.886
 5928.00    2.24447   2.17440   26.065
 5929.00    2.22848   2.16164   26.270
 5930.00    2.24479   2.15460   -1.000
 5931.00    2.25967   2.15879   -1.000
 5932.00    2.26349   2.16795   -1.000
 5933.00    2.25664   2.17069   -1.000
 5934.00    2.24792   2.16490   26.242
 5935.00    2.23977   2.15993   26.293
 5936.00    2.25527   2.16471   -1.000
 5937.00    2.28056   2.17752   -1.000
 5938.00    2.28855   2.18839   -1.000
 5939.00    2.27296   2.18923   25.893
 5940.00    2.24278   2.17948   26.152
 5941.00    2.23054   2.16558   26.307
 5942.00    2.24264   2.15704   -1.000
 5943.00    2.25320   2.15980   -1.000
 5944.00    2.26277   2.17144   -1.000
 5945.00    2.26038   2.18340   25.893
 5946.00    2.25561   2.18734   25.954
 5947.00    2.25349   2.18012   26.178
 5948.00    2.23313   2.16676   26.454
 5949.00    2.22482   2.15740   26.530
 5950.00    2.23731   2.15700   26.406
 5951.00    2.24227   2.16014   26.303
 5952.00    2.24062   2.16047   26.360
 5953.00    2.24140   2.15961   26.347
 5954.00    2.24898   2.16119   -1.000
 5955.00    2.24993   2.16294   -1.000
 5956.00    2.23999   2.16107   26.402
 5957.00    2.23702   2.15833   26.446
 5958.00    2.24992   2.16208   -1.000
 5959.00    2.27424   2.17509   -1.000
 5960.00    2.28785   2.19248   -1.000
 5961.00    2.29105   2.20737   25.693
 5962.00    2.29599   2.21568   25.661
 5963.00    2.29712   2.21656   25.715
 5964.00    2.29053   2.21147   25.853
 5965.00    2.28115   2.20402   25.944
 5966.00    2.27736   2.19955   26.038
 5967.00    2.26963   2.20180   25.989
 5968.00    2.28300   2.20930   25.798
 5969.00    2.29003   2.21776   25.724
 5970.00    2.29297   2.22491   25.715
 5971.00    2.30214   2.23000   25.662
 5972.00    2.28057   2.23135   25.632
 5973.00    2.28498   2.22671   25.759
 5974.00    2.28849   2.21461   25.962
 5975.00    2.25904   2.19624   26.161
 5976.00    2.25160   2.17722   26.349
 5977.00    2.24187   2.16557   26.472
 5978.00    2.25062   2.16617   -1.000
 5979.00    2.26624   2.17745   -1.000
 5980.00    2.27422   2.19147   26.040
 5981.00    2.27360   2.19756   26.092
 5982.00    2.27746   2.18914   -1.000
 5983.00    2.25526   2.16980   -1.000
 5984.00    2.23885   2.15207   -1.000
 5985.00    2.24348   2.14796   -1.000
 5986.00    2.25895   2.15920   -1.000
 5987.00    2.26998   2.17725   -1.000
 5988.00    2.27853   2.19273   -1.000
 5989.00    2.27837   2.20164   25.936
 5990.00    2.27656   2.20427   25.963
 5991.00    2.28244   2.20474   26.024
 5992.00    2.29526   2.20967   -1.000
 5993.00    2.31180   2.22102   -1.000
 5994.00    2.31122   2.23167   -1.000
 5995.00    2.30418   2.23259   25.775
 5996.00    2.29174   2.22231   25.957
 5997.00    2.28052   2.20819   26.076
 5998.00    2.28218   2.19965   -1.000
 5999.00    2.28292   2.20004   -1.000
 6000.00    2.29076   2.20463   -1.000
 6001.00    2.27880   2.20622   26.260
 6002.00    2.26511   2.20244   26.354
 6003.00    2.26068   2.19731   26.351
 6004.00    2.25731   2.19507   26.283
 6005.00    2.25719   2.19263   26.293
 6006.00    2.24642   2.18302   26.471
 6007.00    2.23583   2.16758   26.735
 6008.00    2.23341   2.15861   26.754
 6009.00    2.24189   2.16626   26.466
 6010.00    2.25022   2.18522   26.187
 6011.00    2.26397   2.19910   26.177
 6012.00    2.27517   2.19893   26.368
 6013.00    2.28018   2.19096   -1.000
 6014.00    2.28486   2.18548   -1.000
 6015.00    2.27180   2.18514   -1.000
 6016.00    2.27003   2.18578   -1.000
 6017.00    2.27991   2.18439   -1.000
 6018.00    2.27278   2.18117   -1.000
 6019.00    2.26316   2.17588   -1.000
 6020.00    2.25720   2.16959   -1.000
 6021.00    2.25404   2.16703   -1.000
 6022.00    2.25581   2.17151   -1.000
 6023.00    2.25392   2.18144   26.399
 6024.00    2.26700   2.19397   26.365
 6025.00    2.27901   2.20746   26.216
 6026.00    2.28896   2.22016   26.130
 6027.00    2.29792   2.23105   25.973
 6028.00    2.30551   2.24108   25.854
 6029.00    2.31339   2.25029   25.813
 6030.00    2.32073   2.25705   25.818
 6031.00    2.31546   2.26174   25.875
 6032.00    2.30499   2.26665   25.837
 6033.00    2.31938   2.27210   25.725
 6034.00    2.32614   2.27664   25.655
 6035.00    2.32897   2.27942   25.641
 6036.00    2.32936   2.28008   25.596
 6037.00    2.32795   2.27808   25.617
 6038.00    2.32409   2.27342   25.756
 6039.00    2.31450   2.26719   25.817
 6040.00    2.30641   2.26119   25.896
 6041.00    2.32416   2.25691   25.852
 6042.00    2.32800   2.25555   -1.000
 6043.00    2.32441   2.25952   25.689
 6044.00    2.33571   2.26997   25.488
 6045.00    2.34756   2.28276   25.484
 6046.00    2.35550   2.29222   25.494
 6047.00    2.34786   2.29695   25.455
 6048.00    2.34114   2.29827   25.475
 6049.00    2.35144   2.29727   25.560
 6050.00    2.34226   2.29512   25.621
 6051.00    2.35261   2.29199   25.646
 6052.00    2.34804   2.28605   25.693
 6053.00    2.34008   2.27649   25.794
 6054.00    2.32662   2.26515   25.876
 6055.00    2.30131   2.25469   26.014
 6056.00    2.30586   2.24792   26.100
 6057.00    2.31461   2.24775   26.064
 6058.00    2.32598   2.25459   25.932
 6059.00    2.32521   2.26466   25.797
 6060.00    2.32143   2.27185   25.815
 6061.00    2.32267   2.27049   25.873
 6062.00    2.31550   2.25790   26.219
 6063.00    2.34944   2.23665   -1.000
 6064.00    2.22203   2.21551   25.957
 6065.00    2.22291   2.20672   38.845
 6066.00    1.30551   2.21809   -1.000
 6067.00    1.13489   2.24564   -1.000
 6068.00    1.99896   2.27594   -1.000
 6069.00    2.38640   2.29777   -1.000
 6070.00    2.24594   2.30912   25.251
 6071.00    2.33794   2.31310   24.873
 6072.00    1.07913   2.31198   -1.000
 6073.00    1.30190   2.30835   -1.000
 6074.00    2.26805   2.30581   25.592
 6075.00    2.36544   2.30270   25.672
 6076.00    2.33961   2.29330   25.803
 6077.00    2.32397   2.27711   25.950
 6078.00    2.30647   2.26027   26.148
 6079.00    2.30094   2.24852   26.312
 6080.00    2.30301   2.24154   26.339
 6081.00    2.30294   2.23556   26.361
 6082.00    2.29253   2.23015   26.432
 6083.00    2.28740   2.22808   26.438
 6084.00    2.28333   2.23012   26.419
 6085.00    2.28130   2.23484   26.392
 6086.00    2.29046   2.24104   26.319
 6087.00    2.30461   2.24679   26.215
 6088.00    2.30568   2.24824   26.252
 6089.00    2.28726   2.24284   26.404
 6090.00    2.27448   2.23356   26.522
 6091.00    2.27348   2.22730   26.519
 6092.00    2.28416   2.22889   26.361
 6093.00    2.30283   2.23808   26.224
 6094.00    2.31812   2.25118   26.078
 6095.00    2.32276   2.26329   25.962
 6096.00    2.32395   2.27116   25.960
 6097.00    2.32801   2.27574   26.022
 6098.00    2.32109   2.27885   26.043
 6099.00    2.31122   2.27644   26.046
 6100.00    2.29775   2.25910   26.328
 6101.00    2.26655   2.22392   26.948
 6102.00    2.21880   2.18549   27.409
 6103.00    2.21190   2.16813   27.270
 6104.00    2.25284   2.18188   -1.000
 6105.00    2.28624   2.21313   -1.000
 6106.00    2.29093   2.24135   26.233
 6107.00    2.28512   2.25775   26.319
 6108.00    2.29440   2.26631   26.390
 6109.00    2.29782   2.27229   26.385
 6110.00    2.30445   2.27589   26.332
 6111.00    2.30335   2.27681   26.221
 6112.00    2.30991   2.27839   26.204
 6113.00    2.31126   2.28307   26.079
 6114.00    2.31499   2.28786   26.006
 6115.00    2.32248   2.28835   26.092
 6116.00    2.31417   2.28483   26.261
 6117.00    2.30839   2.27949   26.312
 6118.00    2.29437   2.26931   26.429
 6119.00    2.27520   2.24834   26.789
 6120.00    2.25246   2.21712   27.145
 6121.00    2.21303   2.18669   27.412
 6122.00    2.21053   2.17314   27.457
 6123.00    2.24754   2.18446   27.054
 6124.00    2.27021   2.21098   26.691
 6125.00    2.27501   2.23372   26.650
 6126.00    2.26919   2.24175   26.795
 6127.00    2.25062   2.23750   26.782
 6128.00    2.27783   2.23162   26.723
 6129.00    2.28698   2.23616   26.520
 6130.00    2.29200   2.25471   26.270
 6131.00    2.28453   2.27719   26.196
 6132.00    2.28974   2.28882   26.238
 6133.00    2.28650   2.27928   26.469
 6134.00    2.24751   2.24375   27.037
 6135.00    2.18777   2.18718   27.827
 6136.00    2.12823   2.13130   28.543
 6137.00    2.11711   2.10581   28.689
 6138.00    2.15205   2.12263   28.040
 6139.00    2.20125   2.16270   27.244
 6140.00    2.22066   2.19549   26.895
 6141.00    2.22473   2.20997   26.914
 6142.00    2.21875   2.21965   26.963
 6143.00    2.23383   2.23780   26.721
 6144.00    2.27210   2.26040   26.400
 6145.00    2.28781   2.27518   26.332
 6146.00    2.28352   2.27581   26.442
 6147.00    2.28467   2.26468   26.608
 6148.00    2.26723   2.24892   26.799
 6149.00    2.24732   2.23646   26.960
 6150.00    2.23604   2.23261   26.977
 6151.00    2.23826   2.23748   26.885
 6152.00    2.25914   2.24550   26.704
 6153.00    2.26004   2.24880   26.655
 6154.00    2.25673   2.24369   26.859
 6155.00    2.25747   2.23387   27.010
 6156.00    2.23986   2.22535   27.039
 6157.00    2.22336   2.21860   27.141
 6158.00    2.20768   2.20638   27.414
 6159.00    2.17775   2.17794   27.918
 6160.00    2.12323   2.12901   28.739
 6161.00    2.05942   2.07216   29.583
 6162.00    2.02816   2.03340   29.925
 6163.00    2.05288   2.03198   29.545
 6164.00    2.09500   2.06369   28.753
 6165.00    2.11450   2.10643   28.274
 6166.00    2.12261   2.13789   28.128
 6167.00    2.13147   2.14678   28.186
 6168.00    2.11962   2.13520   28.528
 6169.00    2.09146   2.11821   28.830
 6170.00    2.08603   2.11535   28.665
 6171.00    2.11657   2.13403   28.133
 6172.00    2.14215   2.16315   27.722
 6173.00    2.14774   2.18663   27.711
 6174.00    2.15950   2.19886   27.739
 6175.00    2.16764   2.20377   27.678
 6176.00    2.16690   2.20684   27.623
 6177.00    2.16918   2.21179   27.550
 6178.00    2.17303   2.21957   27.419
 6179.00    2.17702   2.22830   27.316
 6180.00    2.18848   2.23651   27.228
 6181.00    2.20076   2.24466   27.105
 6182.00    2.20599   2.25207   27.030
 6183.00    2.20864   2.25540   27.074
 6184.00    2.19293   2.25160   27.168
 6185.00    2.17618   2.24002   27.374
 6186.00    2.16729   2.22281   27.669
 6187.00    2.14838   2.20374   27.958
 6188.00    2.13250   2.18434   28.226
 6189.00    2.11930   2.16252   28.435
 6190.00    2.08287   2.13936   28.794
 6191.00    2.06485   2.12532   28.998
 6192.00    2.08179   2.13267   28.717
 6193.00    2.12369   2.16102   28.029
 6194.00    2.15941   2.19653   27.546
 6195.00    2.16350   2.22466   27.355
 6196.00    2.16802   2.23866   27.307
 6197.00    2.17305   2.23749   27.467
 6198.00    2.15884   2.22405   27.778
 6199.00    2.14707   2.20773   28.015
 6200.00    2.13439   2.20147   28.010
 6201.00    2.13627   2.21107   27.744
 6202.00    2.14694   2.23040   27.398
 6203.00    2.15142   2.24881   27.297
 6204.00    2.15579   2.26025   27.297
 6205.00    2.16827   2.26568   27.255
 6206.00    2.18877   2.26889   27.249
 6207.00    2.20419   2.27134   27.347
 6208.00    2.20559   2.27114   27.355
 6209.00    2.18964   2.26555   27.464
 6210.00    2.16500   2.25281   27.707
 6211.00    2.15362   2.23165   27.928
 6212.00    2.13659   2.20224   28.197
 6213.00    2.10573   2.17005   28.616
 6214.00    2.09368   2.14547   28.919
 6215.00    2.08810   2.13624   29.012
 6216.00    2.09489   2.14094   28.668
 6217.00    2.10519   2.15011   28.503
 6218.00    2.10563   2.15416   28.694
 6219.00    2.10747   2.15165   28.621
 6220.00    2.10466   2.14972   28.412
 6221.00    2.10220   2.15505   28.554
 6222.00    2.14465   2.16622   30.511
 6223.00    2.09566   2.17727   29.828
 6224.00    1.82251   2.18509   -1.000
 6225.00    2.02347   2.18993   -1.000
 6226.00    2.13345   2.19059   28.265
 6227.00    2.14263   2.18231   28.411
 6228.00    2.12411   2.16049   28.781
 6229.00    2.08987   2.12787   29.256
 6230.00    2.05390   2.09792   29.641
 6231.00    2.05018   2.08746   29.559
 6232.00    2.06344   2.10317   29.154
 6233.00    2.10271   2.13739   28.610
 6234.00    2.13531   2.17477   28.137
 6235.00    2.15477   2.20045   27.977
 6236.00    2.15984   2.20597   28.140
 6237.00    2.13353   2.19288   28.420
 6238.00    2.11611   2.17058   28.710
 6239.00    2.10410   2.14968   29.015
 6240.00    2.09480   2.13618   29.154
 6241.00    2.07853   2.12882   29.153
 6242.00    2.06245   2.12170   29.344
 6243.00    2.05718   2.11196   29.543
 6244.00    2.06417   2.10359   29.544
 6245.00    2.07982   2.10327   29.369
 6246.00    2.09027   2.11529   29.085
 6247.00    2.09985   2.13853   28.721
 6248.00    2.13308   2.16470   28.414
 6249.00    2.13485   2.18150   28.359
 6250.00    2.11939   2.17984   28.598
 6251.00    2.09146   2.15993   29.106
 6252.00    2.06313   2.13227   29.487
 6253.00    2.06250   2.11026   29.702
 6254.00    2.06753   2.09909   29.795
 6255.00    2.05832   2.09358   29.791
 6256.00    2.04042   2.08696   30.032
 6257.00    2.01324   2.07998   30.305
 6258.00    2.02694   2.08075   30.216
 6259.00    2.04932   2.09609   29.787
 6260.00    2.07835   2.12477   29.336
 6261.00    2.10360   2.15864   28.934
 6262.00    2.12237   2.18750   28.491
 6263.00    2.12806   2.20384   28.317
 6264.00    2.11388   2.20693   28.508
 6265.00    2.11377   2.20388   28.707
 6266.00    2.10922   2.20309   28.611
 6267.00    2.10282   2.20593   28.406
 6268.00    2.10788   2.20745   28.473
 6269.00    2.09983   2.20539   28.618
 6270.00    2.08857   2.20383   28.600
 6271.00    2.10491   2.20692   28.505
 6272.00    2.13155   2.21297   28.434
 6273.00    2.13856   2.21591   28.494
 6274.00    2.12029   2.21103   28.690
 6275.00    2.10012   2.19799   28.921
 6276.00    2.06529   2.17899   29.360
 6277.00    2.02838   2.15656   30.080
 6278.00    1.99553   2.13392   -1.000
 6279.00    1.96537   2.11612   -1.000
 6280.00    1.95644   2.10945   -1.000
 6281.00    1.94447   2.11783   -1.000
 6282.00    1.95049   2.13919   -1.000
 6283.00    1.95683   2.16662   -1.000
 6284.00    1.98124   2.19315   -1.000
 6285.00    2.01630   2.21569   -1.000
 6286.00    2.06139   2.23426   -1.000
 6287.00    2.10511   2.24819   28.275
 6288.00    2.13222   2.25447   28.204
 6289.00    2.14402   2.25057   28.334
 6290.00    2.14281   2.23848   28.568
 6291.00    2.14501   2.22438   28.785
 6292.00    2.13650   2.21413   28.859
 6293.00    2.11874   2.20874   28.890
 6294.00    2.11423   2.20384   28.940
 6295.00    2.10520   2.19429   29.145
 6296.00    2.09162   2.18065   29.344
 6297.00    2.07335   2.16944   29.405
 6298.00    2.05578   2.16502   29.369
 6299.00    2.06533   2.16401   29.253
 6300.00    2.06791   2.16085   29.122
 6301.00    2.06407   2.15661   29.326
 6302.00    2.07700   2.15875   29.658
 6303.00    2.09885   2.17179   29.480
 6304.00    2.12125   2.19250   29.027
 6305.00    2.13074   2.21495   28.657
 6306.00    2.13886   2.23562   28.402
 6307.00    2.16038   2.25215   28.146
 6308.00    2.16737   2.26099   28.075
 6309.00    2.15146   2.26001   28.183
 6310.00    2.15449   2.25172   28.369
 6311.00    2.14746   2.24125   28.489
 6312.00    2.13024   2.23124   28.604
 6313.00    2.13075   2.22044   28.642
 6314.00    2.11851   2.20729   28.877
 6315.00    2.10897   2.19357   29.005
 6316.00    2.11425   2.18260   28.997
 6317.00    2.11355   2.17644   28.968
 6318.00    2.10175   2.17773   29.001
 6319.00    2.10849   2.18929   28.913
 6320.00    2.14431   2.20881   28.590
 6321.00    2.16762   2.22938   28.298
 6322.00    2.16329   2.24713   28.170
 6323.00    2.17148   2.26267   28.077
 6324.00    2.18404   2.27594   27.931
 6325.00    2.19019   2.28473   27.835
 6326.00    2.19491   2.28822   27.812
 6327.00    2.20314   2.28855   27.688
 6328.00    2.20338   2.28845   27.692
 6329.00    2.20210   2.28911   27.716
 6330.00    2.20639   2.29140   27.735
 6331.00    2.22069   2.29571   27.648
 6332.00    2.22197   2.29796   27.594
 6333.00    2.20391   2.29017   27.655
 6334.00    2.18215   2.26921   27.727
 6335.00    2.18185   2.24348   28.303
 6336.00    2.19136   2.22749   28.454
 6337.00    2.16856   2.22938   28.242
 6338.00    2.18702   2.24573   27.957
 6339.00    2.20529   2.26712   27.651
 6340.00    2.21685   2.28457   27.494
 6341.00    2.22492   2.29168   27.362
 6342.00    2.21259   2.28699   27.363
 6343.00    2.19468   2.27606   27.585
 6344.00    2.18532   2.26836   27.655
 6345.00    2.18313   2.27023   27.590
 6346.00    2.18798   2.28122   27.448
 6347.00    2.20143   2.29725   27.260
 6348.00    2.23268   2.31431   27.144
 6349.00    2.22893   2.32874   27.138
 6350.00    2.22667   2.33714   27.088
 6351.00    2.21811   2.33737   27.101
 6352.00    2.20600   2.32896   27.208
 6353.00    2.19843   2.31367   27.333
 6354.00    2.18835   2.29632   27.624
 6355.00    2.16780   2.28214   27.877
 6356.00    2.16695   2.27127   27.918
 6357.00    2.17199   2.25914   27.986
 6358.00    2.15662   2.24389   28.277
 6359.00    2.14491   2.22894   28.429
 6360.00    2.14173   2.21785   28.342
 6361.00    2.14713   2.21148   28.244
 6362.00    2.14664   2.21075   28.210
 6363.00    2.14887   2.21750   28.123
 6364.00    2.16006   2.23203   27.947
 6365.00    2.17084   2.25192   27.767
 6366.00    2.19717   2.27331   27.614
 6367.00    2.21664   2.29203   27.442
 6368.00    2.21946   2.30460   27.260
 6369.00    2.22160   2.31042   27.174
 6370.00    2.22645   2.31345   27.184
 6371.00    2.23577   2.31925   27.108
 6372.00    2.24323   2.32955   27.001
 6373.00    2.23228   2.34080   27.048
 6374.00    2.22432   2.34808   27.079
 6375.00    2.22983   2.34923   27.131
 6376.00    2.21855   2.34478   27.227
 6377.00    2.19802   2.33602   27.361
 6378.00    2.18538   2.32522   27.543
 6379.00    2.18123   2.31593   27.660
 6380.00    2.17255   2.31100   27.689
 6381.00    2.17778   2.31096   27.736
 6382.00    2.18179   2.31416   27.738
 6383.00    2.18953   2.31812   27.672
 6384.00    2.18005   2.32186   27.772
 6385.00    2.18590   2.32648   27.848
 6386.00    2.18350   2.33257   27.835
 6387.00    2.16724   2.33838   -1.000
 6388.00    2.15646   2.34121   -1.000
 6389.00    2.15421   2.33867   -1.000
 6390.00    2.13130   2.32795   -1.000
 6391.00    2.11110   2.30761   -1.000
 6392.00    2.09068   2.28295   -1.000
 6393.00    2.07712   2.26715   -1.000
 6394.00    2.07422   2.27181   -1.000
 6395.00    2.07831   2.29417   -1.000
 6396.00    2.08867   2.31683   -1.000
 6397.00    2.08220   2.32192   -1.000
 6398.00    2.05992   2.30513   -1.000
 6399.00    2.02663   2.27976   -1.000
 6400.00    2.01230   2.26782   -1.000
 6401.00    2.02080   2.28205   -1.000
 6402.00    2.03884   2.31487   -1.000
 6403.00    2.05690   2.34656   -1.000
 6404.00    2.05454   2.36207   -1.000
 6405.00    2.03414   2.35833   -1.000
 6406.00    2.01126   2.34175   -1.000
 6407.00    1.98665   2.32338   -1.000
 6408.00    1.97137   2.31256   -1.000
 6409.00    1.96515   2.31030   -1.000
 6410.00    1.95061   2.31082   -1.000
 6411.00    1.92118   2.31045   -1.000
 6412.00    1.90664   2.31114   -1.000
 6413.00    1.92011   2.31473   -1.000
 6414.00    1.91743   2.31971   -1.000
 6415.00    1.91185   2.32421   -1.000
 6416.00    1.89955   2.32696   -1.000
 6417.00    1.88146   2.32459   -1.000
 6418.00    1.84760   2.31341   -1.000
 6419.00    1.82667   2.29596   -1.000
 6420.00    1.79501   2.28293   -1.000
 6421.00    1.77688   2.28579   -1.000
 6422.00    1.78645   2.30636   -1.000
 6423.00    1.79841   2.33473   -1.000
 6424.00    1.79158   2.35917   -1.000
 6425.00    1.78072   2.37505   -1.000
 6426.00    1.76014   2.38271   -1.000
 6427.00    1.74352   2.38045   -1.000
 6428.00    1.72204   2.36458   -1.000
