###################################################################
## OUTPUT of StarlightChains_v04.for    [Cid@UFSC - 01/Apr/2007] ##
###################################################################

## Some input info
NGC6218_a_1.cxt                          [arq_obs]
Base.BC03.S                              [arq_base]
NGC6218_a_1.msk                          [arq_masks]
StCv04.C99.config                        [arq_config]
  150                                    [N_base]
    0                                    [N_YAV_components = # of components with extra extinction!]
    0                                    [i_FitPowerLaw (1/0 = Yes/No)]
-9.99                                    [alpha_PowerLaw]
CCM                                      [red_law_option]
 1.458241                                [q_norm = A(l_norm)/A(V)]

## (Re)Sampling Parameters
 3359.00                                 [l_ini (A)]
 6428.00                                 [l_fin (A)]
    1.00                                 [dl    (A)]     (OBS: dl_cushion =    50.00 A)

## Normalization info
 4020.00                                 [l_norm (A) - for base]
 4010.00                                 [llow_norm (A) - window for f_obs]
 4060.00                                 [lupp_norm (A) - window for f_obs]
1.427242E-14                             [fobs_norm (in input units)]

## S/N
 4730.00                                 [llow_SN (A) - window for S/N]
 4780.00                                 [lupp_SN (A) - window for S/N]
  89.798                                 [S/N in S/N window]
  81.145                                 [S/N in norm. window]
  59.740                                 [S/N_err in S/N window]
  53.984                                 [S/N_err in norm. window]
  1.0000                                 [fscale_chi2]

## etc...
  2147483625                             [idum_orig]
  3066                                   [NOl_eff]
  2468                                   [Nl_eff]
   598    NSIGMA                         [Ntot_cliped & clip_method]
  4954810                                [Nglobal_steps]
   7                                     [N_chains]
  32                                     [NEX0s_base = N_base in EX0s-fits]
 0   0   1      282   2.0   8.250E+02    [Clip-Bug, RC-Crash & Burn-In warning-flags, n_censored_weights, wei_nsig_threshold & wei_limit]
   167    167.580    167.563      0.016  [idt_all, wdt_TotTime, wdt_UsrTime & wdt_SysTime (sec)]

## Synthesis Results - Best model ##

 1.48447E+00                             [chi2/Nl_eff]
     1.53529                             [adev (%)]

   100.07422                             [sum-of-x (%)]
 2.73403E-14                             [Flux_tot (units of input spectrum!)]
 4.17258E-10                             [Mini_tot (???)]
 2.13209E-10                             [Mcor_tot (???)]

 -12.59                                  [v0_min  (km/s)]
  59.21                                  [vd_min  (km/s)]
 0.4834                                  [AV_min  (mag)]
 0.0000                                  [YAV_min (mag)]

# j     x_j(%)      Mini_j(%)     Mcor_j(%)     age_j(yr)     Z_j      (L/M)_j    YAV?  Mstars   component_j        a/Fe...       SSP_chi2r SSP_adev(%)   SSP_AV   SSP_x(%)
  1      0.7564     6.0691E-03    1.1877E-02    1.000000E+06  0.00010  8.160E-03    0   1.0000   age020_m22            0.0000     1.1172E+02    10.8728   4.0000    69.0570
  2      8.5988     1.1830E-02    2.3152E-02    3.160000E+06  0.00010  4.759E-02    0   1.0000   age045_m22            0.0000     1.6423E+01     3.3586   1.8019    95.6908
  3     10.5561     3.5774E-02    6.7085E-02    5.010000E+06  0.00010  1.932E-02    0   0.9582   age055_m22            0.0000     9.1269E+01    11.2451   2.3533    74.8356
  4      0.0000     0.0000E+00    0.0000E+00    6.610000E+06  0.00010  9.973E-03    0   0.9297   age061_m22            0.0000     1.0518E+02    11.4251   4.0000    71.5219
  5      0.0000     0.0000E+00    0.0000E+00    8.710000E+06  0.00010  7.690E-03    0   0.9030   age067_m22            0.0000     9.9509E+01    11.2438   4.0000    72.0580
  6      0.0000     0.0000E+00    0.0000E+00    1.000000E+07  0.00010  6.375E-03    0   0.8902   age070_m22            0.0000     9.5376E+01    10.9054   4.0000    72.4200
  7      0.0000     0.0000E+00    0.0000E+00    1.445000E+07  0.00010  4.874E-03    0   0.8589   age078_m22            0.0000     6.8928E+01     9.3654   3.7894    76.2905
  8      0.0000     0.0000E+00    0.0000E+00    2.512000E+07  0.00010  4.103E-03    0   0.8174   age090_m22            0.0000     2.9916E+01     5.6426   3.2604    86.4088
  9      0.0103     1.8482E-04    2.8322E-04    4.000000E+07  0.00010  3.654E-03    0   0.7830   age104_m22            0.0000     3.8338E+01     3.9755   2.8307    95.6624
 10      0.0030     6.3513E-05    9.4428E-05    5.500000E+07  0.00010  3.093E-03    0   0.7597   age110_m22            0.0000     4.5038E+01     3.9704   2.6712    99.3686
 11      0.0000     0.0000E+00    0.0000E+00    1.015200E+08  0.00010  2.431E-03    0   0.7138   age116_m22            0.0000     7.3788E+01     5.1057   2.2336   105.9229
 12      0.0000     0.0000E+00    0.0000E+00    1.609000E+08  0.00010  1.319E-03    0   0.6775   age120_m22            0.0000     5.8515E+01     5.6894   1.7234   110.0487
 13      0.0000     0.0000E+00    0.0000E+00    2.861200E+08  0.00010  1.075E-03    0   0.6412   age125_m22            0.0000     1.9333E+02    12.0820   1.4973   125.3427
 14      0.0000     0.0000E+00    0.0000E+00    5.088000E+08  0.00010  7.183E-04    0   0.6083   age130_m22            0.0000     2.4003E+02    14.1747   1.1633   131.5377
 15      0.0000     0.0000E+00    0.0000E+00    9.047900E+08  0.00010  4.524E-04    0   0.5785   age135_m22            0.0000     2.4103E+02    14.5143   0.9491   133.6728
 16      0.0007     1.5352E-04    1.6789E-04    1.278050E+09  0.00010  3.018E-04    0   0.5588   age138_m22            0.0000     9.8902E+01     9.4688   0.6566   121.9153
 17      0.0000     0.0000E+00    0.0000E+00    1.434000E+09  0.00010  2.691E-04    0   0.5532   age139_m22            0.0000     7.8086E+01     8.4709   0.5462   119.4170
 18      0.0000     0.0000E+00    0.0000E+00    2.500000E+09  0.00010  1.582E-04    0   0.5296   age150_m22            0.0000     6.4264E+01     7.3437   0.4796   118.3659
 19      0.0000     0.0000E+00    0.0000E+00    4.250000E+09  0.00010  1.007E-04    0   0.5110   age158_m22            0.0000     3.0200E+01     5.0389   0.4293   112.3638
 20      0.0000     0.0000E+00    0.0000E+00    6.250000E+09  0.00010  6.869E-05    0   0.4985   age166_m22            0.0000     1.0833E+01     3.0580   0.4649   105.7074
 21      0.0078     8.6691E-03    8.3658E-03    7.500000E+09  0.00010  5.873E-05    0   0.4931   age171_m22            0.0000     8.8847E+00     2.7099   0.4728   104.3594
 22      0.0080     1.1624E-02    1.1042E-02    1.000000E+10  0.00010  4.481E-05    0   0.4854   age181_m22            0.0000     8.1211E+00     2.6547   0.4363   103.9209
 23      0.0854     1.6024E-01    1.5024E-01    1.300000E+10  0.00010  3.489E-05    0   0.4791   age193_m22            0.0000     6.6863E+00     2.5114   0.3852   103.1291
 24      0.0000     0.0000E+00    0.0000E+00    1.500000E+10  0.00010  3.035E-05    0   0.4766   age201_m22            0.0000     5.9051E+00     2.4078   0.3511   102.7380
 25      1.5334     4.0000E+00    3.7066E+00    1.800000E+10  0.00010  2.510E-05    0   0.4735   age213_m22            0.0000     4.3476E+00     2.1529   0.2972   101.5545
 26      0.0000     0.0000E+00    0.0000E+00    1.000000E+06  0.00040  8.458E-03    0   1.0000   age020_m32            0.0000     1.1055E+02    10.7760   4.0000    69.7525
 27      0.0000     0.0000E+00    0.0000E+00    3.160000E+06  0.00040  3.973E-02    0   1.0000   age045_m32            0.0000     3.4165E+01     6.0495   3.1675    85.9805
 28      0.0000     0.0000E+00    0.0000E+00    5.010000E+06  0.00040  1.935E-02    0   0.9532   age055_m32            0.0000     7.4128E+01     9.9900   3.5204    76.3550
 29      0.0000     0.0000E+00    0.0000E+00    6.610000E+06  0.00040  1.204E-02    0   0.9243   age061_m32            0.0000     8.5431E+01    10.4866   3.8493    74.0899
 30      0.0000     0.0000E+00    0.0000E+00    8.710000E+06  0.00040  9.433E-03    0   0.9001   age067_m32            0.0000     7.5852E+01     9.8822   3.8063    75.4070
 31      0.0000     0.0000E+00    0.0000E+00    1.000000E+07  0.00040  8.053E-03    0   0.8877   age070_m32            0.0000     7.2294E+01     9.6285   3.7643    76.0409
 32      0.0000     0.0000E+00    0.0000E+00    1.445000E+07  0.00040  7.027E-03    0   0.8578   age078_m32            0.0000     4.1497E+01     7.1445   3.1657    83.4766
 33      0.0000     0.0000E+00    0.0000E+00    2.512000E+07  0.00040  4.707E-03    0   0.8166   age090_m32            0.0000     2.6627E+01     5.1446   2.7959    89.9106
 34      0.0000     0.0000E+00    0.0000E+00    4.000000E+07  0.00040  3.714E-03    0   0.7827   age104_m32            0.0000     3.0726E+01     3.8854   2.4944    96.7234
 35      0.0000     0.0000E+00    0.0000E+00    5.500000E+07  0.00040  2.982E-03    0   0.7593   age110_m32            0.0000     3.8369E+01     3.8925   2.3835    99.7720
 36      0.0000     0.0000E+00    0.0000E+00    1.015200E+08  0.00040  2.188E-03    0   0.7143   age116_m32            0.0000     1.0741E+02     7.2981   1.9010   112.5954
 37      0.0000     0.0000E+00    0.0000E+00    1.609000E+08  0.00040  1.690E-03    0   0.6856   age120_m32            0.0000     1.6745E+02    10.0367   1.5653   120.7119
 38      0.0000     0.0000E+00    0.0000E+00    2.861200E+08  0.00040  1.152E-03    0   0.6509   age125_m32            0.0000     2.0393E+02    12.6360   1.2181   127.9092
 39      0.0000     0.0000E+00    0.0000E+00    5.088000E+08  0.00040  7.331E-04    0   0.6182   age130_m32            0.0000     2.2128E+02    13.7702   1.0016   130.9518
 40      0.0000     0.0000E+00    0.0000E+00    9.047900E+08  0.00040  3.960E-04    0   0.5890   age135_m32            0.0000     1.0321E+02    10.0939   0.7272   121.9035
 41      0.0000     0.0000E+00    0.0000E+00    1.278050E+09  0.00040  2.854E-04    0   0.5687   age138_m32            0.0000     7.6870E+01     8.2554   0.5087   120.9672
 42      0.0000     0.0000E+00    0.0000E+00    1.434000E+09  0.00040  2.531E-04    0   0.5632   age139_m32            0.0000     7.4608E+01     8.0357   0.4548   120.6106
 43     32.0307     1.4094E+01    1.4856E+01    2.500000E+09  0.00040  1.488E-04    0   0.5386   age150_m32            0.0000     4.8852E+01     6.4501   0.2653   115.7382
 44     11.0779     7.9865E+00    8.1259E+00    4.250000E+09  0.00040  9.082E-05    0   0.5199   age158_m32            0.0000     1.0977E+01     3.2093   0.3117   106.3988
 45      1.8709     1.9254E+00    1.9127E+00    6.250000E+09  0.00040  6.362E-05    0   0.5076   age166_m32            0.0000     2.9158E+00     1.7735   0.3784    98.7561
 46      6.5132     8.0631E+00    7.9325E+00    7.500000E+09  0.00040  5.289E-05    0   0.5027   age171_m32            0.0000     3.4109E+00     1.8434   0.3571    96.9460
 47      3.8899     6.4121E+00    6.2091E+00    1.000000E+10  0.00040  3.972E-05    0   0.4948   age181_m32            0.0000     4.3198E+00     1.9527   0.3002    95.4433
 48      0.0179     3.5693E-02    3.4018E-02    1.300000E+10  0.00040  3.283E-05    0   0.4870   age193_m32            0.0000     3.1720E+00     1.9959   0.2007   100.2759
 49      0.0000     0.0000E+00    0.0000E+00    1.500000E+10  0.00040  2.925E-05    0   0.4854   age201_m32            0.0000     5.0419E+00     2.5055   0.1480   103.2267
 50      0.0000     0.0000E+00    0.0000E+00    1.800000E+10  0.00040  2.469E-05    0   0.4819   age213_m32            0.0000     6.3353E+00     2.7912   0.0922   104.3485
 51      0.0000     0.0000E+00    0.0000E+00    1.000000E+06  0.00400  1.114E-02    0   1.0000   age020_m42            0.0000     1.0435E+02    11.1544   4.0000    70.0111
 52      0.0010     1.5797E-06    3.0912E-06    3.160000E+06  0.00400  4.073E-02    0   0.9999   age045_m42            0.0000     2.2159E+01     4.5300   2.8123    90.3878
 53      0.0000     0.0000E+00    0.0000E+00    5.010000E+06  0.00400  2.534E-02    0   0.9488   age055_m42            0.0000     4.9053E+01     7.8277   3.3422    80.2263
 54      0.0007     1.8735E-06    3.3805E-06    6.610000E+06  0.00400  2.583E-02    0   0.9220   age061_m42            0.0000     2.7046E+01     3.9662   2.5986    92.4181
 55      0.0000     0.0000E+00    0.0000E+00    8.710000E+06  0.00400  1.706E-02    0   0.8983   age067_m42            0.0000     3.0462E+01     5.8749   2.5122    87.5889
 56      0.0000     0.0000E+00    0.0000E+00    1.000000E+07  0.00400  1.271E-02    0   0.8862   age070_m42            0.0000     4.1682E+01     7.6377   2.5492    84.4252
 57      0.0000     0.0000E+00    0.0000E+00    1.445000E+07  0.00400  7.666E-03    0   0.8571   age078_m42            0.0000     5.7332E+01     8.8309   3.0015    79.8021
 58      0.0000     0.0000E+00    0.0000E+00    2.512000E+07  0.00400  5.070E-03    0   0.8174   age090_m42            0.0000     3.4776E+01     6.9630   2.3962    86.8224
 59      0.0000     0.0000E+00    0.0000E+00    4.000000E+07  0.00400  3.505E-03    0   0.7851   age104_m42            0.0000     2.1546E+01     4.8252   2.0038    92.4733
 60      0.0000     0.0000E+00    0.0000E+00    5.500000E+07  0.00400  3.059E-03    0   0.7629   age110_m42            0.0000     2.8748E+01     3.5668   1.8750   104.0600
 61      0.0000     0.0000E+00    0.0000E+00    1.015200E+08  0.00400  2.268E-03    0   0.7207   age116_m42            0.0000     1.3396E+02     9.6809   1.4987   120.8062
 62      0.0000     0.0000E+00    0.0000E+00    1.609000E+08  0.00400  1.720E-03    0   0.6930   age120_m42            0.0000     1.4318E+02    10.7647   1.3054   124.7422
 63      2.7316     1.6576E-01    2.1452E-01    2.861200E+08  0.00400  1.079E-03    0   0.6613   age125_m42            0.0000     1.3028E+02    10.9142   0.9454   125.7026
 64      0.0000     0.0000E+00    0.0000E+00    5.088000E+08  0.00400  6.261E-04    0   0.6313   age130_m42            0.0000     1.5782E+02    11.9610   0.6987   131.2778
 65      0.0000     0.0000E+00    0.0000E+00    9.047900E+08  0.00400  3.535E-04    0   0.6024   age135_m42            0.0000     8.2640E+01     9.0714   0.4398   125.5688
 66      0.0000     0.0000E+00    0.0000E+00    1.278050E+09  0.00400  2.677E-04    0   0.5837   age138_m42            0.0000     3.9747E+01     6.6682  -0.0905   116.1770
 67      0.0000     0.0000E+00    0.0000E+00    1.434000E+09  0.00400  1.910E-04    0   0.5716   age139_m42            0.0000     4.1631E+01     7.5992   0.0000   119.1397
 68      1.9140     1.2764E+00    1.3646E+00    2.500000E+09  0.00400  9.818E-05    0   0.5463   age150_m42            0.0000     2.1205E+01     4.7579  -0.0774   107.3211
 69      0.3665     4.3699E-01    4.5060E-01    4.250000E+09  0.00400  5.491E-05    0   0.5269   age158_m42            0.0000     2.6498E+01     4.2117  -0.1341   101.8400
 70      0.0000     0.0000E+00    0.0000E+00    6.250000E+09  0.00400  3.857E-05    0   0.5151   age166_m42            0.0000     3.4419E+01     4.6740  -0.2396    99.7330
 71      5.9375     1.1988E+01    1.1988E+01    7.500000E+09  0.00400  3.243E-05    0   0.5110   age171_m42            0.0000     4.0887E+01     5.0400  -0.3114    98.9478
 72      7.5841     2.0486E+01    2.0158E+01    1.000000E+10  0.00400  2.424E-05    0   0.5028   age181_m42            0.0000     5.3044E+01     5.5066  -0.3808    97.9609
 73      0.0072     2.5066E-02    2.4169E-02    1.300000E+10  0.00400  1.883E-05    0   0.4927   age193_m42            0.0000     6.6413E+01     5.8134  -0.4102    97.2977
 74      0.0000     0.0000E+00    0.0000E+00    1.500000E+10  0.00400  1.685E-05    0   0.4919   age201_m42            0.0000     6.2825E+01     5.7048  -0.4055    97.3146
 75      0.0000     0.0000E+00    0.0000E+00    1.800000E+10  0.00400  1.452E-05    0   0.4874   age213_m42            0.0000     5.7251E+01     5.5243  -0.3932    97.6464
 76      0.0000     0.0000E+00    0.0000E+00    1.000000E+06  0.00800  1.286E-02    0   1.0000   age020_m52            0.0000     9.1848E+01    10.4428   3.9521    72.2846
 77      0.0000     0.0000E+00    0.0000E+00    3.160000E+06  0.00800  3.147E-02    0   0.9966   age045_m52            0.0000     8.5240E+01    10.1944   3.8566    73.9471
 78      0.0000     0.0000E+00    0.0000E+00    5.010000E+06  0.00800  2.664E-02    0   0.9443   age055_m52            0.0000     6.0500E+01     8.4257   3.4811    78.7660
 79      0.0000     0.0000E+00    0.0000E+00    6.610000E+06  0.00800  2.151E-02    0   0.9177   age061_m52            0.0000     3.4846E+01     6.6762   2.1322    86.4596
 80      0.0000     0.0000E+00    0.0000E+00    8.710000E+06  0.00800  1.628E-02    0   0.8948   age067_m52            0.0000     3.3271E+01     6.3142   2.4775    87.7979
 81      0.0000     0.0000E+00    0.0000E+00    1.000000E+07  0.00800  1.215E-02    0   0.8827   age070_m52            0.0000     4.2138E+01     7.1140   2.8425    85.1856
 82      0.0000     0.0000E+00    0.0000E+00    1.445000E+07  0.00800  8.739E-03    0   0.8552   age078_m52            0.0000     3.6591E+01     6.0485   2.8411    87.8611
 83      0.0000     0.0000E+00    0.0000E+00    2.512000E+07  0.00800  5.676E-03    0   0.8162   age090_m52            0.0000     3.7298E+01     4.4898   2.3364    96.3170
 84      0.0000     0.0000E+00    0.0000E+00    4.000000E+07  0.00800  3.939E-03    0   0.7841   age104_m52            0.0000     4.0086E+01     3.8252   2.0842   102.2941
 85      0.0000     0.0000E+00    0.0000E+00    5.500000E+07  0.00800  3.155E-03    0   0.7627   age110_m52            0.0000     5.2542E+01     4.5531   1.9755   107.1676
 86      0.0000     0.0000E+00    0.0000E+00    1.015200E+08  0.00800  2.206E-03    0   0.7226   age116_m52            0.0000     9.4565E+01     7.9983   1.6348   117.5695
 87      0.0000     0.0000E+00    0.0000E+00    1.609000E+08  0.00800  1.596E-03    0   0.6963   age120_m52            0.0000     1.1154E+02     9.4805   1.3561   122.1094
 88      0.0000     0.0000E+00    0.0000E+00    2.861200E+08  0.00800  1.002E-03    0   0.6665   age125_m52            0.0000     1.7350E+02    13.0665   0.8994   132.1054
 89      0.0000     0.0000E+00    0.0000E+00    5.088000E+08  0.00800  5.759E-04    0   0.6377   age130_m52            0.0000     1.7962E+02    14.1268   0.5033   138.8983
 90      0.0000     0.0000E+00    0.0000E+00    9.047900E+08  0.00800  2.972E-04    0   0.6086   age135_m52            0.0000     8.3750E+01    10.6076   0.1617   129.0057
 91      0.0000     0.0000E+00    0.0000E+00    1.278050E+09  0.00800  2.242E-04    0   0.5907   age138_m52            0.0000     5.0340E+01     7.4726  -0.2615   119.3075
 92      0.0000     0.0000E+00    0.0000E+00    1.434000E+09  0.00800  1.645E-04    0   0.5787   age139_m52            0.0000     4.1422E+01     6.7404  -0.0963   117.9426
 93      0.0000     0.0000E+00    0.0000E+00    2.500000E+09  0.00800  7.723E-05    0   0.5519   age150_m52            0.0000     4.7544E+01     5.8784  -0.3265   109.4258
 94      0.0000     0.0000E+00    0.0000E+00    4.250000E+09  0.00800  4.151E-05    0   0.5320   age158_m52            0.0000     4.5632E+01     5.5799  -0.3514   104.9846
 95      0.0000     0.0000E+00    0.0000E+00    6.250000E+09  0.00800  3.010E-05    0   0.5197   age166_m52            0.0000     6.5840E+01     6.2719  -0.5248   102.7966
 96      0.0000     0.0000E+00    0.0000E+00    7.500000E+09  0.00800  2.467E-05    0   0.5139   age171_m52            0.0000     7.2208E+01     6.4935  -0.5642   102.3318
 97      1.0706     3.7648E+00    3.7237E+00    1.000000E+10  0.00800  1.862E-05    0   0.5054   age181_m52            0.0000     9.2479E+01     7.2532  -0.6974   102.0912
 98      1.9320     8.8275E+00    8.6171E+00    1.300000E+10  0.00800  1.433E-05    0   0.4988   age193_m52            0.0000     1.2473E+02     7.9548  -0.7929   102.7552
 99      0.0000     0.0000E+00    0.0000E+00    1.500000E+10  0.00800  1.244E-05    0   0.4936   age201_m52            0.0000     1.3955E+02     8.1973  -0.8216   103.2205
100      0.0000     0.0000E+00    0.0000E+00    1.800000E+10  0.00800  1.070E-05    0   0.4888   age213_m52            0.0000     1.4710E+02     8.4137  -0.8579   103.1342
101      0.0000     0.0000E+00    0.0000E+00    1.000000E+06  0.02000  1.989E-02    0   1.0000   age020_m62            0.0000     1.0595E+02    11.1335   3.9593    70.7891
102      0.0000     0.0000E+00    0.0000E+00    3.160000E+06  0.02000  3.772E-02    0   0.9858   age045_m62            0.0000     9.1239E+01    10.4858   3.8004    73.3649
103      0.0000     0.0000E+00    0.0000E+00    5.010000E+06  0.02000  3.227E-02    0   0.9342   age055_m62            0.0000     3.5435E+01     6.0471   3.1353    85.1565
104      0.0000     0.0000E+00    0.0000E+00    6.610000E+06  0.02000  2.387E-02    0   0.9090   age061_m62            0.0000     5.1076E+01     8.2189   2.9526    82.4377
105      0.0000     0.0000E+00    0.0000E+00    8.710000E+06  0.02000  1.102E-02    0   0.8861   age067_m62            0.0000     1.3808E+02    14.7537   2.7338    73.3372
106      0.0000     0.0000E+00    0.0000E+00    1.000000E+07  0.02000  1.011E-02    0   0.8751   age070_m62            0.0000     9.8395E+01    12.2176   2.7000    77.2556
107      0.0000     0.0000E+00    0.0000E+00    1.445000E+07  0.02000  7.331E-03    0   0.8472   age078_m62            0.0000     7.0806E+01    10.0025   2.6652    80.2804
108      0.0000     0.0000E+00    0.0000E+00    2.512000E+07  0.02000  4.206E-03    0   0.8099   age090_m62            0.0000     7.4772E+01     9.8475   2.5670    80.3005
109      0.0000     0.0000E+00    0.0000E+00    4.000000E+07  0.02000  3.373E-03    0   0.7799   age104_m62            0.0000     2.4345E+01     4.1652   2.1559    96.3443
110      0.0000     0.0000E+00    0.0000E+00    5.500000E+07  0.02000  2.747E-03    0   0.7595   age110_m62            0.0000     3.4367E+01     4.0463   1.9609   104.7959
111      0.0000     0.0000E+00    0.0000E+00    1.015200E+08  0.02000  1.878E-03    0   0.7221   age116_m62            0.0000     1.0231E+02     8.1912   1.5973   118.8590
112      0.0000     0.0000E+00    0.0000E+00    1.609000E+08  0.02000  1.378E-03    0   0.6978   age120_m62            0.0000     1.5922E+02    11.2163   1.3040   127.5220
113      0.0000     0.0000E+00    0.0000E+00    2.861200E+08  0.02000  8.869E-04    0   0.6700   age125_m62            0.0000     2.6297E+02    15.4660   0.7221   141.5784
114      0.0000     0.0000E+00    0.0000E+00    5.088000E+08  0.02000  4.834E-04    0   0.6430   age130_m62            0.0000     2.0725E+02    15.1171   0.3178   142.9882
115      0.0000     0.0000E+00    0.0000E+00    9.047900E+08  0.02000  2.312E-04    0   0.6152   age135_m62            0.0000     7.9989E+01    10.2535  -0.0186   130.4227
116      0.0000     0.0000E+00    0.0000E+00    1.278050E+09  0.02000  1.387E-04    0   0.5927   age138_m62            0.0000     3.5980E+01     6.7928  -0.2130   117.5443
117      0.0000     0.0000E+00    0.0000E+00    1.434000E+09  0.02000  1.168E-04    0   0.5865   age139_m62            0.0000     3.3529E+01     6.2665  -0.2016   114.2709
118      0.0000     0.0000E+00    0.0000E+00    2.500000E+09  0.02000  5.505E-05    0   0.5610   age150_m62            0.0000     5.3360E+01     6.5278  -0.4925   107.8446
119      0.0000     0.0000E+00    0.0000E+00    4.250000E+09  0.02000  3.070E-05    0   0.5407   age158_m62            0.0000     9.8145E+01     8.1407  -0.7855   107.6887
120      0.0000     0.0000E+00    0.0000E+00    6.250000E+09  0.02000  2.104E-05    0   0.5277   age166_m62            0.0000     1.3293E+02     8.9031  -0.9146   108.0259
121      0.0000     0.0000E+00    0.0000E+00    7.500000E+09  0.02000  1.770E-05    0   0.5223   age171_m62            0.0000     1.4967E+02     9.2940  -1.0000   108.6221
122      0.0000     0.0000E+00    0.0000E+00    1.000000E+10  0.02000  1.297E-05    0   0.5121   age181_m62            0.0000     2.0180E+02    10.1012  -1.0000   108.0849
123      0.0004     2.5851E-03    2.5533E-03    1.300000E+10  0.02000  9.691E-06    0   0.5047   age193_m62            0.0000     2.4884E+02    11.8512  -1.0000   107.7963
124      0.0000     0.0000E+00    0.0000E+00    1.500000E+10  0.02000  8.360E-06    0   0.4999   age201_m62            0.0000     2.9282E+02    13.6860  -1.0000   107.4656
125      0.0000     0.0000E+00    0.0000E+00    1.800000E+10  0.02000  6.911E-06    0   0.4946   age213_m62            0.0000     3.4928E+02    15.7590  -1.0000   107.1470
126      0.0000     0.0000E+00    0.0000E+00    1.000000E+06  0.05000  2.651E-02    0   0.9998   age020_m72            0.0000     1.0093E+02    10.6514   3.9503    71.9154
127      0.0000     0.0000E+00    0.0000E+00    3.160000E+06  0.05000  4.817E-02    0   0.9577   age045_m72            0.0000     6.4143E+01     8.6012   3.6017    78.0840
128      0.0000     0.0000E+00    0.0000E+00    5.010000E+06  0.05000  3.101E-02    0   0.9147   age055_m72            0.0000     5.6767E+01     8.2666   3.2366    80.9810
129      0.0000     0.0000E+00    0.0000E+00    6.610000E+06  0.05000  1.472E-02    0   0.8877   age061_m72            0.0000     1.1264E+02    12.5091   2.9069    75.8855
130      0.0000     0.0000E+00    0.0000E+00    8.710000E+06  0.05000  1.050E-02    0   0.8638   age067_m72            0.0000     8.5498E+01    10.2044   3.2527    77.9367
131      0.0000     0.0000E+00    0.0000E+00    1.000000E+07  0.05000  8.954E-03    0   0.8524   age070_m72            0.0000     6.7933E+01     8.5187   3.4870    79.4010
132      0.0000     0.0000E+00    0.0000E+00    1.445000E+07  0.05000  6.392E-03    0   0.8262   age078_m72            0.0000     5.8809E+01     7.7246   3.4080    81.2614
133      0.0000     0.0000E+00    0.0000E+00    2.512000E+07  0.05000  4.207E-03    0   0.7902   age090_m72            0.0000     3.2681E+01     5.2572   2.9284    88.9883
134      0.0000     0.0000E+00    0.0000E+00    4.000000E+07  0.05000  3.198E-03    0   0.7618   age104_m72            0.0000     5.0105E+01     5.4234   2.1139   108.4395
135      0.0000     0.0000E+00    0.0000E+00    5.500000E+07  0.05000  2.593E-03    0   0.7432   age110_m72            0.0000     7.5351E+01     6.9448   1.9417   113.5748
136      0.0000     0.0000E+00    0.0000E+00    1.015200E+08  0.05000  1.716E-03    0   0.7092   age116_m72            0.0000     1.2932E+02     9.5607   1.6179   121.6849
137      0.0000     0.0000E+00    0.0000E+00    1.609000E+08  0.05000  1.218E-03    0   0.6876   age120_m72            0.0000     1.9786E+02    12.7472   1.2003   131.0526
138      0.0000     0.0000E+00    0.0000E+00    2.861200E+08  0.05000  7.047E-04    0   0.6618   age125_m72            0.0000     2.5707E+02    15.8498   0.5078   142.2126
139      0.0000     0.0000E+00    0.0000E+00    5.088000E+08  0.05000  3.590E-04    0   0.6356   age130_m72            0.0000     1.7763E+02    14.6045   0.0000   141.6423
140      0.0000     0.0000E+00    0.0000E+00    9.047900E+08  0.05000  1.484E-04    0   0.6088   age135_m72            0.0000     5.2365E+01     8.3289  -0.3588   118.6974
141      0.0000     0.0000E+00    0.0000E+00    1.278050E+09  0.05000  9.435E-05    0   0.5924   age138_m72            0.0000     6.8661E+01     8.4344  -0.6749   111.9049
142      0.0000     0.0000E+00    0.0000E+00    1.434000E+09  0.05000  7.827E-05    0   0.5847   age139_m72            0.0000     7.1274E+01     8.0637  -0.6312   110.0629
143      0.0000     0.0000E+00    0.0000E+00    2.500000E+09  0.05000  3.759E-05    0   0.5583   age150_m72            0.0000     1.2452E+02     8.9070  -0.9086   107.3654
144      0.0000     0.0000E+00    0.0000E+00    4.250000E+09  0.05000  1.842E-05    0   0.5374   age158_m72            0.0000     1.9190E+02    11.0490  -1.0000   105.1858
145      0.6772     3.6735E+00    3.7686E+00    6.250000E+09  0.05000  1.207E-05    0   0.5242   age166_m72            0.0000     3.1832E+02    16.7769  -1.0000   102.7106
146      0.6755     4.4261E+00    4.4895E+00    7.500000E+09  0.05000  9.993E-06    0   0.5183   age171_m72            0.0000     3.4617E+02    17.8502  -1.0000   102.1720
147      0.1840     1.6525E+00    1.6432E+00    1.000000E+10  0.05000  7.291E-06    0   0.5081   age181_m72            0.0000     4.5934E+02    21.1215  -1.0000   100.7839
148      0.0056     6.9444E-02    6.8197E-02    1.300000E+10  0.05000  5.316E-06    0   0.5018   age193_m72            0.0000     6.7673E+02    25.5806  -1.0000    98.0269
149      0.0000     0.0000E+00    0.0000E+00    1.500000E+10  0.05000  4.497E-06    0   0.4972   age201_m72            0.0000     7.8975E+02    27.2977  -1.0000    97.0826
150      0.0260     4.5448E-01    4.3796E-01    1.800000E+10  0.05000  3.739E-06    0   0.4924   age213_m72            0.0000     9.5670E+02    29.4504  -1.0000    95.1627


## Synthesis Results - Average & Chains ##

# j      x_j: min, <> & last-chain-values for 1 ...  7 chains
  1      0.7564      0.8066      0.8266      0.8267      0.8707      0.8202      0.8096      0.8090      0.7144
  2      8.5988      3.1106      4.3161      5.0065      3.7681      5.2593      4.8416      5.0964      3.9620
  3     10.5561     10.2636     10.6141      9.8277     10.3424     10.1742     10.6017     10.3093     10.5664
  4      0.0000      0.0106      0.0000      0.0000      0.0000      0.0000      0.0000      0.0000      0.0000
  5      0.0000      0.0142      0.0000      0.0000      0.0000      0.1130      0.0000      0.0000      0.0000
  6      0.0000      0.0094      0.0000      0.0291      0.0000      0.0000      0.0000      0.0000      0.0000
  7      0.0000      0.0068      0.0000      0.0000      0.0000      0.0000      0.0000      0.0473      0.0000
  8      0.0000      0.0451      0.0000      0.0000      0.0000      0.0000      0.0425      0.0000      0.0995
  9      0.0103      0.1258      0.0000      0.0188      0.0000      0.4299      0.0000      0.2532      0.1420
 10      0.0030      0.0566      0.0000      0.0548      0.0000      0.2918      0.1182      0.2280      0.0000
 11      0.0000      0.1685      0.0000      0.3580      0.0977      0.4004      0.0739      0.0000      0.0986
 12      0.0000      0.0673      0.0000      0.0000      0.0000      0.0000      0.0000      0.0370      0.0000
 13      0.0000      0.0343      0.0000      0.0000      0.1762      0.0000      0.0000      0.0000      0.0651
 14      0.0000      0.0259      0.0934      0.0000      0.0000      0.2051      0.0977      0.0000      0.0000
 15      0.0000      0.0268      0.0000      0.0000      0.0000      0.0000      0.0095      0.0247      0.0000
 16      0.0007      0.0422      0.0000      0.0000      0.0374      0.0000      0.0427      0.6785      0.0000
 17      0.0000      0.0433      0.0000      0.1864      0.0000      0.0064      0.0000      0.0248      0.0000
 18      0.0000      0.0453      0.0000      0.0000      0.0000      0.0000      0.0000      0.0000      0.0000
 19      0.0000      0.0684      0.0000      0.1484      0.0000      0.0000      0.0000      0.0000      0.0000
 20      0.0000      0.1827      0.1827      0.0000      0.0000      0.1755      0.1942      0.0825      0.0000
 21      0.0078      0.3284      0.0000      0.1599      0.8269      0.4993      0.0000      0.2219      0.1194
 22      0.0080      0.3766      0.0000      0.3620      0.6604      0.0482      0.4979      0.4495      0.0000
 23      0.0854      0.4999      0.0000      0.3632      0.3165      0.5947      0.4704      1.0988      0.3698
 24      0.0000      0.5517      0.0617      0.4109      0.2404      0.0138      0.1063      0.0000      0.5306
 25      1.5334      2.1710      2.0939      0.5776      0.2664      2.1749      2.1059      2.4544      1.9447
 26      0.0000      0.0156      0.0000      0.0065      0.0000      0.0000      0.0000      0.0000      0.0000
 27      0.0000      0.0502      0.1261      0.0319      0.0000      0.0000      0.0000      0.1006      0.0000
 28      0.0000      0.0193      0.0000      0.0000      0.0000      0.0000      0.0000      0.0000      0.0000
 29      0.0000      0.0136      0.1798      0.0000      0.0000      0.0000      0.0000      0.0000      0.0000
 30      0.0000      0.0097      0.0000      0.0000      0.0000      0.0000      0.0000      0.0000      0.1143
 31      0.0000      0.0130      0.0000      0.0595      0.0000      0.1295      0.0000      0.0000      0.0000
 32      0.0000      0.0551      0.0670      0.0000      0.1099      0.0000      0.0000      0.0167      0.0000
 33      0.0000      0.0388      0.0000      0.0000      0.0000      0.0000      0.0015      0.0000      0.0000
 34      0.0000      0.1468      0.0000      0.0278      0.0000      0.0000      0.1007      0.0276      0.0253
 35      0.0000      0.0500      0.0000      0.0000      0.0000      0.0000      0.0000      0.0000      0.0000
 36      0.0000      0.0708      0.0000      0.0901      0.0327      0.0000      0.0000      0.0000      0.0000
 37      0.0000      0.0587      0.0225      0.0562      0.2976      0.0000      0.0000      0.0000      0.1634
 38      0.0000      0.0474      0.1251      0.0000      0.0000      0.0000      0.2202      0.0000      0.0136
 39      0.0000      0.0324      0.3817      0.0527      0.0000      0.0000      0.0000      0.0000      0.0000
 40      0.0000      0.0276      0.0041      0.0000      0.0000      0.0000      0.0000      0.0000      0.0000
 41      0.0000      0.0419      0.0000      0.0000      0.0000      0.0000      0.0000      0.0000      0.0000
 42      0.0000      0.0405      0.0000      0.0000      0.0000      0.0000      0.0000      0.0000      0.0000
 43     32.0307     33.4068     33.3245     33.3223     34.1097     33.6813     32.9183     32.7106     32.7609
 44     11.0779     13.4603     14.0253     13.4623     13.4464     13.1214     13.7217     12.7203     14.5203
 45      1.8709      2.6885      2.7531      2.5138      2.9241      3.1212      2.7453      2.9042      2.7217
 46      6.5132      3.1145      3.1102      3.6868      3.3165      2.8055      2.9974      2.6734      3.3055
 47      3.8899      2.7753      2.6084      3.7911      3.9424      2.9802      3.0370      3.8629      2.1864
 48      0.0179      0.8045      1.7749      0.6858      0.2786      0.6445      0.9251      1.1003      0.1892
 49      0.0000      0.3841      0.3303      0.7397      0.4556      0.0077      0.0216      0.1120      1.2786
 50      0.0000      0.3077      0.2259      0.3537      0.2430      0.2210      0.0000      0.0000      0.1727
 51      0.0000      0.0256      0.0000      0.0857      0.0000      0.0000      0.0000      0.0000      0.0229
 52      0.0010      0.4052      0.4137      0.4609      0.6218      0.0000      0.4096      0.3577      0.1848
 53      0.0000      0.0247      0.0000      0.0000      0.1045      0.0000      0.0000      0.0000      0.0000
 54      0.0007      0.5154      0.3450      0.4939      0.4781      0.0000      0.2679      0.5753      0.8110
 55      0.0000      0.0789      0.1199      0.0000      0.0000      0.0063      0.0000      0.0000      0.0000
 56      0.0000      0.1617      0.1486      0.0000      0.1152      0.1217      0.2186      0.0000      0.1623
 57      0.0000      0.0160      0.0000      0.0000      0.0000      0.0000      0.0000      0.0551      0.0000
 58      0.0000      0.0392      0.0000      0.0700      0.0000      0.0561      0.0000      0.0000      0.0063
 59      0.0000      0.0360      0.0000      0.0000      0.0000      0.0000      0.0000      0.0000      0.0000
 60      0.0000      0.0529      0.0000      0.0000      0.0000      0.0000      0.0106      0.0000      0.0000
 61      0.0000      0.0454      0.3819      0.0000      0.0000      0.0000      0.0000      0.0000      0.0000
 62      0.0000      0.0750      0.1765      0.0000      0.0000      0.0000      0.6008      0.1131      0.3214
 63      2.7316      0.0665      0.0000      0.2394      0.0075      0.0000      0.3726      0.2079      0.2031
 64      0.0000      0.0531      0.2135      0.0484      0.0000      0.0000      0.0202      0.0000      0.1411
 65      0.0000      0.0514      0.0185      0.0225      0.0000      0.0171      0.0000      0.0000      0.0000
 66      0.0000      0.0665      0.0000      0.0000      0.0000      0.0000      0.0132      0.1481      0.0000
 67      0.0000      0.0738      0.0000      0.0000      0.0000      0.2024      0.0000      0.0000      0.0000
 68      1.9140      0.2320      0.0000      0.3189      0.6540      0.7720      1.2899      0.3039      0.0700
 69      0.3665      0.2173      0.7660      0.0000      0.0000      0.6067      0.1861      0.3466      0.0000
 70      0.0000      0.1922      0.2323      0.0000      0.0000      0.0000      0.6979      0.1141      0.4978
 71      5.9375      6.3315      6.2903      6.2262      7.0048      6.3295      6.2442      6.9645      6.2684
 72      7.5841      8.7398      9.3201      8.8020      8.7011      8.4163      8.4319      8.3036      8.7754
 73      0.0072      0.7692      0.6574      0.6383      1.3264      0.7116      0.6047      1.1313      0.7391
 74      0.0000      0.0840      0.1867      0.0000      0.0000      0.0000      0.0238      0.0000      0.0290
 75      0.0000      0.0759      0.0258      0.3100      0.0000      0.0749      0.0000      0.0000      0.3751
 76      0.0000      0.0140      0.0000      0.0000      0.0000      0.0000      0.0047      0.0000      0.0338
 77      0.0000      0.0103      0.0000      0.0000      0.0000      0.0000      0.0000      0.0000      0.0000
 78      0.0000      0.0189      0.0000      0.0000      0.0000      0.0399      0.0000      0.0000      0.0000
 79      0.0000      0.0591      0.0000      0.0000      0.0000      0.0133      0.0000      0.0000      0.0000
 80      0.0000      0.0398      0.0000      0.0583      0.0000      0.0000      0.0000      0.0000      0.0000
 81      0.0000      0.0332      0.0000      0.0000      0.0000      0.0000      0.0538      0.0000      0.0000
 82      0.0000      0.0354      0.0000      0.0000      0.0000      0.2089      0.0000      0.0000      0.0000
 83      0.0000      0.0469      0.0000      0.0000      0.3047      0.1456      0.0000      0.0000      0.1197
 84      0.0000      0.0433      0.0000      0.0000      0.0000      0.0061      0.0000      0.0000      0.0000
 85      0.0000      0.0459      0.0000      0.0195      0.0000      0.0421      0.0000      0.0000      0.0166
 86      0.0000      0.0454      0.0000      0.0000      0.0000      0.0000      0.0000      0.0000      0.0000
 87      0.0000      0.0410      0.0000      0.0000      0.0185      0.0000      0.1147      0.0000      0.7885
 88      0.0000      0.0225      0.0000      0.0000      0.0000      0.0000      0.0000      0.0000      0.0000
 89      0.0000      0.0220      0.0000      0.0000      0.0000      0.0059      0.0000      0.0703      0.0000
 90      0.0000      0.0209      0.0225      0.1623      0.0000      0.0000      0.0000      0.0000      0.1014
 91      0.0000      0.0235      0.0000      0.0000      0.0000      0.0000      0.0055      0.0000      0.1888
 92      0.0000      0.0386      0.0000      0.0000      0.0000      0.0000      0.0000      0.0000      0.0000
 93      0.0000      0.1018      0.0000      0.0000      0.0000      0.0389      0.0000      0.0688      0.0000
 94      0.0000      0.1865      0.0000      0.0000      0.0000      0.0000      0.2779      0.0000      0.0000
 95      0.0000      0.2065      0.0006      0.3664      0.4865      0.1990      0.2160      0.0000      0.2364
 96      0.0000      0.2276      0.4189      0.1327      0.0000      1.1316      0.3282      0.1500      0.5712
 97      1.0706      0.2381      0.1583      0.3311      0.2074      0.2505      0.1280      0.4206      0.3800
 98      1.9320      0.1915      0.1663      0.5380      0.1126      0.0094      0.2866      0.1932      0.5751
 99      0.0000      0.1411      0.0514      0.0000      0.0000      0.2757      0.2033      0.0000      0.3452
100      0.0000      0.0877      0.0000      0.3107      0.0000      0.1656      0.0599      0.0000      0.0000
101      0.0000      0.0222      0.0000      0.0000      0.0000      0.0000      0.0000      0.0000      0.0000
102      0.0000      0.0121      0.0000      0.0633      0.0000      0.0000      0.0000      0.0000      0.0000
103      0.0000      0.0351      0.0904      0.0000      0.1147      0.0000      0.0000      0.0000      0.1124
104      0.0000      0.0299      0.0000      0.0746      0.1203      0.0889      0.0000      0.0000      0.0000
105      0.0000      0.0119      0.0000      0.0000      0.0000      0.0000      0.0000      0.0000      0.0000
106      0.0000      0.0314      0.0113      0.0000      0.0000      0.0000      0.0000      0.0000      0.0000
107      0.0000      0.0368      0.0000      0.0707      0.0000      0.0000      0.0000      0.0000      0.0000
108      0.0000      0.0185      0.0337      0.0000      0.0000      0.0000      0.1507      0.0000      0.0000
109      0.0000      0.0405      0.0139      0.0000      0.1876      0.0000      0.0000      0.1191      0.1827
110      0.0000      0.0334      0.0000      0.0000      0.1767      0.0000      0.0000      0.1363      0.0000
111      0.0000      0.0436      0.0000      0.2318      0.0000      0.0185      0.2113      0.0066      0.0000
112      0.0000      0.0330      0.2167      0.0000      0.0052      0.0000      0.0000      0.0000      0.0000
113      0.0000      0.0179      0.0000      0.0000      0.1842      0.0000      0.0000      0.0000      0.0395
114      0.0000      0.0137      0.0000      0.0000      0.0000      0.0000      0.0000      0.0000      0.0000
115      0.0000      0.0177      0.0331      0.0000      0.0000      0.0000      0.0000      0.0331      0.0000
116      0.0000      0.0266      0.0000      0.0000      0.0000      0.0000      0.0000      0.0000      0.0000
117      0.0000      0.0364      0.0413      0.0249      0.0000      0.0116      0.0000      0.0000      0.0000
118      0.0000      0.0564      0.0000      0.0000      0.0000      0.0000      0.0000      0.0000      0.0545
119      0.0000      0.0437      0.0000      0.0000      0.0000      0.0000      0.0000      0.0000      0.0000
120      0.0000      0.0421      0.0000      0.0000      0.2764      0.0753      0.0149      0.0000      0.0000
121      0.0000      0.0315      0.0000      0.0000      0.0000      0.0000      0.1453      0.0000      0.0000
122      0.0000      0.0288      0.1154      0.0000      0.0000      0.0000      0.1553      0.0000      0.0000
123      0.0004      0.0341      0.1172      0.0000      0.0000      0.0000      0.0000      0.1623      0.0000
124      0.0000      0.0194      0.0000      0.0000      0.0000      0.0000      0.0000      0.0000      0.0000
125      0.0000      0.0208      0.0000      0.0000      0.0000      0.0000      0.0000      0.0000      0.0000
126      0.0000      0.0151      0.0000      0.0000      0.0000      0.0003      0.0000      0.0000      0.1643
127      0.0000      0.0145      0.0181      0.0000      0.0000      0.0000      0.0000      0.0000      0.0000
128      0.0000      0.0260      0.0672      0.0000      0.0000      0.0000      0.0000      0.0000      0.0000
129      0.0000      0.0175      0.0000      0.0000      0.0000      0.0505      0.0000      0.0000      0.0000
130      0.0000      0.0178      0.0000      0.2731      0.0000      0.0000      0.0000      0.0070      0.0000
131      0.0000      0.0117      0.0000      0.0000      0.0000      0.0000      0.0000      0.0000      0.0000
132      0.0000      0.0139      0.0000      0.0000      0.0000      0.0000      0.0000      0.0000      0.0000
133      0.0000      0.0135      0.0000      0.0000      0.0000      0.0000      0.0000      0.0000      0.0000
134      0.0000      0.0253      0.0000      0.0875      0.0000      0.0000      0.0000      0.0000      0.0000
135      0.0000      0.0309      0.0000      0.2125      0.0000      0.1560      0.0000      0.0000      0.0000
136      0.0000      0.0454      0.1522      0.0000      0.0441      0.0459      0.1105      0.1553      0.0392
137      0.0000      0.0286      0.0000      0.0000      0.2799      0.1174      0.0000      0.0752      0.0000
138      0.0000      0.0143      0.0000      0.0248      0.0000      0.0000      0.0000      0.0000      0.0000
139      0.0000      0.0139      0.0000      0.0000      0.0000      0.0000      0.0000      0.0000      0.0000
140      0.0000      0.0371      0.0000      0.0000      0.0029      0.0000      0.0000      0.0000      0.0000
141      0.0000      0.0777      0.0138      0.0000      0.0000      0.0192      0.0000      0.0000      0.0000
142      0.0000      0.1024      0.0000      0.4368      0.0231      0.0000      0.1961      0.0000      0.0000
143      0.0000      0.1052      0.1021      0.0982      0.0000      0.0000      0.0000      0.0000      0.1280
144      0.0000      0.0781      0.0000      0.1784      0.0000      0.3296      0.0000      0.0000      0.0000
145      0.6772      0.3604      0.2282      0.3834      0.7259      0.0000      0.3287      0.6182      0.3419
146      0.6755      0.2205      0.2558      0.3189      0.0150      0.1952      0.2431      0.2741      0.0000
147      0.1840      0.2421      0.4416      0.0000      0.3039      0.4556      0.3530      0.2227      0.3063
148      0.0056      0.2274      0.1339      0.3066      0.2191      0.1531      0.3143      0.2261      0.0216
149      0.0000      0.2291      0.2838      0.1709      0.2348      0.2080      0.0000      0.1222      0.3085
150      0.0260      0.3199      0.3649      0.2821      0.3327      0.4053      0.2504      0.3156      0.4237

# j      m_j: min, <> & last-chain-values for 1 ...  7 chains
  1  1.1877E-02  1.1370E-02  1.1633E-02  1.1937E-02  1.2585E-02  1.1687E-02  1.1962E-02  1.1538E-02  1.0013E-02
  2  2.3152E-02  7.5185E-03  1.0416E-02  1.2396E-02  9.3386E-03  1.2850E-02  1.2266E-02  1.2464E-02  9.5222E-03
  3  6.7085E-02  5.8553E-02  6.0457E-02  5.7433E-02  6.0499E-02  5.8672E-02  6.3396E-02  5.9507E-02  5.9940E-02
  4  0.0000E+00  1.1353E-04  0.0000E+00  0.0000E+00  0.0000E+00  0.0000E+00  0.0000E+00  0.0000E+00  0.0000E+00
  5  0.0000E+00  1.9208E-04  0.0000E+00  0.0000E+00  0.0000E+00  1.5431E-03  0.0000E+00  0.0000E+00  0.0000E+00
  6  0.0000E+00  1.5022E-04  0.0000E+00  4.7884E-04  0.0000E+00  0.0000E+00  0.0000E+00  0.0000E+00  0.0000E+00
  7  0.0000E+00  1.3862E-04  0.0000E+00  0.0000E+00  0.0000E+00  0.0000E+00  0.0000E+00  9.7036E-04  0.0000E+00
  8  0.0000E+00  1.0329E-03  0.0000E+00  0.0000E+00  0.0000E+00  0.0000E+00  1.0207E-03  0.0000E+00  2.2677E-03
  9  2.8322E-04  3.0998E-03  0.0000E+00  4.7564E-04  0.0000E+00  1.0712E-02  0.0000E+00  6.3150E-03  3.4801E-03
 10  9.4428E-05  1.6005E-03  0.0000E+00  1.5862E-03  0.0000E+00  8.3330E-03  3.5000E-03  6.5173E-03  0.0000E+00
 11  0.0000E+00  5.6899E-03  0.0000E+00  1.2387E-02  3.3837E-03  1.3671E-02  2.6157E-03  0.0000E+00  3.3102E-03
 12  0.0000E+00  3.9768E-03  0.0000E+00  0.0000E+00  0.0000E+00  0.0000E+00  0.0000E+00  2.2099E-03  0.0000E+00
 13  0.0000E+00  2.3543E-03  0.0000E+00  0.0000E+00  1.2395E-02  0.0000E+00  0.0000E+00  0.0000E+00  4.4443E-03
 14  0.0000E+00  2.5228E-03  9.0843E-03  0.0000E+00  0.0000E+00  2.0194E-02  9.9742E-03  0.0000E+00  0.0000E+00
 15  0.0000E+00  3.9473E-03  0.0000E+00  0.0000E+00  0.0000E+00  0.0000E+00  1.4590E-03  3.6685E-03  0.0000E+00
 16  1.6789E-04  8.9948E-03  0.0000E+00  0.0000E+00  8.1612E-03  0.0000E+00  9.5300E-03  1.4621E-01  0.0000E+00
 17  0.0000E+00  1.0245E-02  0.0000E+00  4.5143E-02  0.0000E+00  1.5268E-03  0.0000E+00  5.9230E-03  0.0000E+00
 18  0.0000E+00  1.7461E-02  0.0000E+00  0.0000E+00  0.0000E+00  0.0000E+00  0.0000E+00  0.0000E+00  0.0000E+00
 19  0.0000E+00  3.9921E-02  0.0000E+00  8.8750E-02  0.0000E+00  0.0000E+00  0.0000E+00  0.0000E+00  0.0000E+00
 20  0.0000E+00  1.5252E-01  1.5228E-01  0.0000E+00  0.0000E+00  1.4807E-01  1.6995E-01  6.9698E-02  0.0000E+00
 21  8.3658E-03  3.1712E-01  0.0000E+00  1.5820E-01  8.1885E-01  4.8744E-01  0.0000E+00  2.1679E-01  1.1462E-01
 22  1.1042E-02  4.6919E-01  0.0000E+00  4.6205E-01  8.4373E-01  6.0741E-02  6.5027E-01  5.6664E-01  0.0000E+00
 23  1.5024E-01  7.8958E-01  0.0000E+00  5.8771E-01  5.1260E-01  9.4944E-01  7.7887E-01  1.7561E+00  5.8084E-01
 24  0.0000E+00  9.9660E-01  1.1119E-01  7.6029E-01  4.4523E-01  2.5233E-02  2.0125E-01  0.0000E+00  9.5294E-01
 25  3.7066E+00  4.7111E+00  4.5363E+00  1.2839E+00  5.9267E-01  4.7704E+00  4.7897E+00  5.3886E+00  4.1960E+00
 26  0.0000E+00  2.1189E-04  0.0000E+00  9.1186E-05  0.0000E+00  0.0000E+00  0.0000E+00  0.0000E+00  0.0000E+00
 27  0.0000E+00  1.4543E-04  3.6460E-04  9.4654E-05  0.0000E+00  0.0000E+00  0.0000E+00  2.9458E-04  0.0000E+00
 28  0.0000E+00  1.0952E-04  0.0000E+00  0.0000E+00  0.0000E+00  0.0000E+00  0.0000E+00  0.0000E+00  0.0000E+00
 29  0.0000E+00  1.2031E-04  1.5856E-03  0.0000E+00  0.0000E+00  0.0000E+00  0.0000E+00  0.0000E+00  0.0000E+00
 30  0.0000E+00  1.0613E-04  0.0000E+00  0.0000E+00  0.0000E+00  0.0000E+00  0.0000E+00  0.0000E+00  1.2480E-03
 31  0.0000E+00  1.6539E-04  0.0000E+00  7.7246E-04  0.0000E+00  1.6603E-03  0.0000E+00  0.0000E+00  0.0000E+00
 32  0.0000E+00  7.7317E-04  9.3926E-04  0.0000E+00  1.5825E-03  0.0000E+00  0.0000E+00  2.3717E-04  0.0000E+00
 33  0.0000E+00  7.7491E-04  0.0000E+00  0.0000E+00  0.0000E+00  0.0000E+00  3.0856E-05  0.0000E+00  0.0000E+00
 34  0.0000E+00  3.5580E-03  0.0000E+00  6.8994E-04  0.0000E+00  0.0000E+00  2.5588E-03  6.7771E-04  6.0967E-04
 35  0.0000E+00  1.4645E-03  0.0000E+00  0.0000E+00  0.0000E+00  0.0000E+00  0.0000E+00  0.0000E+00  0.0000E+00
 36  0.0000E+00  2.6583E-03  0.0000E+00  3.4660E-03  1.2600E-03  0.0000E+00  0.0000E+00  0.0000E+00  0.0000E+00
 37  0.0000E+00  2.7401E-03  1.0492E-03  2.6842E-03  1.4241E-02  0.0000E+00  0.0000E+00  0.0000E+00  7.5824E-03
 38  0.0000E+00  3.0781E-03  8.1175E-03  0.0000E+00  0.0000E+00  0.0000E+00  1.4998E-02  0.0000E+00  8.7914E-04
 39  0.0000E+00  3.1422E-03  3.6964E-02  5.2373E-03  0.0000E+00  0.0000E+00  0.0000E+00  0.0000E+00  0.0000E+00
 40  0.0000E+00  4.7202E-03  7.0670E-04  0.0000E+00  0.0000E+00  0.0000E+00  0.0000E+00  0.0000E+00  0.0000E+00
 41  0.0000E+00  9.6018E-03  0.0000E+00  0.0000E+00  0.0000E+00  0.0000E+00  0.0000E+00  0.0000E+00  0.0000E+00
 42  0.0000E+00  1.0373E-02  0.0000E+00  0.0000E+00  0.0000E+00  0.0000E+00  0.0000E+00  0.0000E+00  0.0000E+00
 43  1.4856E+01  1.3909E+01  1.3853E+01  1.4212E+01  1.4562E+01  1.4175E+01  1.4366E+01  1.3780E+01  1.3563E+01
 44  8.1259E+00  8.8633E+00  9.2206E+00  9.0807E+00  9.0786E+00  8.7337E+00  9.4707E+00  8.4747E+00  9.5073E+00
 45  1.9127E+00  2.4674E+00  2.5227E+00  2.3633E+00  2.7517E+00  2.8955E+00  2.6409E+00  2.6968E+00  2.4838E+00
 46  7.9325E+00  3.4051E+00  3.3949E+00  4.1290E+00  3.7178E+00  3.1005E+00  3.4349E+00  2.9573E+00  3.5935E+00
 47  6.2091E+00  3.9768E+00  3.7316E+00  5.5647E+00  5.7924E+00  4.3166E+00  4.5614E+00  5.6005E+00  3.1153E+00
 48  3.4018E-02  1.3727E+00  3.0237E+00  1.1987E+00  4.8737E-01  1.1117E+00  1.6546E+00  1.8996E+00  3.2098E-01
 49  0.0000E+00  7.3312E-01  6.2952E-01  1.4464E+00  8.9172E-01  1.4886E-02  4.3145E-02  2.1627E-01  2.4268E+00
 50  0.0000E+00  6.9079E-01  5.0632E-01  8.1344E-01  5.5950E-01  5.0160E-01  0.0000E+00  0.0000E+00  3.8561E-01
 51  0.0000E+00  2.6395E-04  0.0000E+00  9.0695E-04  0.0000E+00  0.0000E+00  0.0000E+00  0.0000E+00  2.3477E-04
 52  3.0912E-06  1.1441E-03  1.1665E-03  1.3331E-03  1.8004E-03  0.0000E+00  1.2123E-03  1.0219E-03  5.1888E-04
 53  0.0000E+00  1.0634E-04  0.0000E+00  0.0000E+00  4.6138E-04  0.0000E+00  0.0000E+00  0.0000E+00  0.0000E+00
 54  3.3805E-06  2.1162E-03  1.4143E-03  2.0774E-03  2.0128E-03  0.0000E+00  1.1528E-03  2.3900E-03  3.3111E-03
 55  0.0000E+00  4.7806E-04  7.2510E-04  0.0000E+00  0.0000E+00  3.8609E-05  0.0000E+00  0.0000E+00  0.0000E+00
 56  0.0000E+00  1.2968E-03  1.1900E-03  0.0000E+00  9.4769E-04  9.8639E-04  1.8381E-03  0.0000E+00  1.2941E-03
 57  0.0000E+00  2.0601E-04  0.0000E+00  0.0000E+00  0.0000E+00  0.0000E+00  0.0000E+00  7.1664E-04  0.0000E+00
 58  0.0000E+00  7.2767E-04  0.0000E+00  1.3296E-03  0.0000E+00  1.0524E-03  0.0000E+00  0.0000E+00  1.1556E-04
 59  0.0000E+00  9.2847E-04  0.0000E+00  0.0000E+00  0.0000E+00  0.0000E+00  0.0000E+00  0.0000E+00  0.0000E+00
 60  0.0000E+00  1.5173E-03  0.0000E+00  0.0000E+00  0.0000E+00  0.0000E+00  3.1938E-04  0.0000E+00  0.0000E+00
 61  0.0000E+00  1.6598E-03  1.3937E-02  0.0000E+00  0.0000E+00  0.0000E+00  0.0000E+00  0.0000E+00  0.0000E+00
 62  0.0000E+00  3.4746E-03  8.1671E-03  0.0000E+00  0.0000E+00  0.0000E+00  2.9184E-02  5.3026E-03  1.4813E-02
 63  2.1452E-01  4.6852E-03  0.0000E+00  1.7288E-02  5.3854E-04  0.0000E+00  2.7532E-02  1.4826E-02  1.4240E-02
 64  0.0000E+00  6.1554E-03  2.4720E-02  5.7551E-03  0.0000E+00  0.0000E+00  2.4497E-03  0.0000E+00  1.6272E-02
 65  0.0000E+00  1.0069E-02  3.6213E-03  4.5224E-03  0.0000E+00  3.3849E-03  0.0000E+00  0.0000E+00  0.0000E+00
 66  0.0000E+00  1.6674E-02  0.0000E+00  0.0000E+00  0.0000E+00  0.0000E+00  3.4660E-03  3.7587E-02  0.0000E+00
 67  0.0000E+00  2.5411E-02  0.0000E+00  0.0000E+00  0.0000E+00  7.0428E-02  0.0000E+00  0.0000E+00  0.0000E+00
 68  1.3646E+00  1.4846E-01  0.0000E+00  2.0907E-01  4.2921E-01  4.9949E-01  8.6537E-01  1.9677E-01  4.4523E-02
 69  4.5060E-01  2.3984E-01  8.4418E-01  0.0000E+00  0.0000E+00  6.7694E-01  2.1528E-01  3.8710E-01  0.0000E+00
 70  0.0000E+00  2.9519E-01  3.5632E-01  0.0000E+00  0.0000E+00  0.0000E+00  1.1238E+00  1.7733E-01  7.6032E-01
 71  1.1988E+01  1.1476E+01  1.1383E+01  1.1560E+01  1.3018E+01  1.1596E+01  1.1863E+01  1.2772E+01  1.1297E+01
 72  2.0158E+01  2.0853E+01  2.2202E+01  2.1513E+01  2.1287E+01  2.0298E+01  2.1087E+01  2.0046E+01  2.0819E+01
 73  2.4169E-02  2.3152E+00  1.9755E+00  1.9679E+00  4.0932E+00  2.1649E+00  1.9076E+00  3.4450E+00  2.2120E+00
 74  0.0000E+00  2.8216E-01  6.2596E-01  0.0000E+00  0.0000E+00  0.0000E+00  8.3619E-02  0.0000E+00  9.6796E-02
 75  0.0000E+00  2.9316E-01  9.9609E-02  1.2263E+00  0.0000E+00  2.9235E-01  0.0000E+00  0.0000E+00  1.4402E+00
 76  0.0000E+00  1.2519E-04  0.0000E+00  0.0000E+00  0.0000E+00  0.0000E+00  4.4372E-05  0.0000E+00  3.0024E-04
 77  0.0000E+00  3.7574E-05  0.0000E+00  0.0000E+00  0.0000E+00  0.0000E+00  0.0000E+00  0.0000E+00  0.0000E+00
 78  0.0000E+00  7.7122E-05  0.0000E+00  0.0000E+00  0.0000E+00  1.6438E-04  0.0000E+00  0.0000E+00  0.0000E+00
 79  0.0000E+00  2.9005E-04  0.0000E+00  0.0000E+00  0.0000E+00  6.5827E-05  0.0000E+00  0.0000E+00  0.0000E+00
 80  0.0000E+00  2.5148E-04  0.0000E+00  3.7783E-04  0.0000E+00  0.0000E+00  0.0000E+00  0.0000E+00  0.0000E+00
 81  0.0000E+00  2.7754E-04  0.0000E+00  0.0000E+00  0.0000E+00  0.0000E+00  4.7127E-04  0.0000E+00  0.0000E+00
 82  0.0000E+00  3.9850E-04  0.0000E+00  0.0000E+00  0.0000E+00  2.3774E-03  0.0000E+00  0.0000E+00  0.0000E+00
 83  0.0000E+00  7.7580E-04  0.0000E+00  0.0000E+00  5.1686E-03  2.4350E-03  0.0000E+00  0.0000E+00  1.9695E-03
 84  0.0000E+00  9.9080E-04  0.0000E+00  0.0000E+00  0.0000E+00  1.4103E-04  0.0000E+00  0.0000E+00  0.0000E+00
 85  0.0000E+00  1.2765E-03  0.0000E+00  5.5487E-04  0.0000E+00  1.1831E-03  0.0000E+00  0.0000E+00  4.5869E-04
 86  0.0000E+00  1.7104E-03  0.0000E+00  0.0000E+00  0.0000E+00  0.0000E+00  0.0000E+00  0.0000E+00  0.0000E+00
 87  0.0000E+00  2.0576E-03  0.0000E+00  0.0000E+00  9.5323E-04  0.0000E+00  6.0311E-03  0.0000E+00  3.9349E-02
 88  0.0000E+00  1.7218E-03  0.0000E+00  0.0000E+00  0.0000E+00  0.0000E+00  0.0000E+00  0.0000E+00  0.0000E+00
 89  0.0000E+00  2.7962E-03  0.0000E+00  0.0000E+00  0.0000E+00  7.5631E-04  0.0000E+00  9.0593E-03  0.0000E+00
 90  0.0000E+00  4.9172E-03  5.2833E-03  3.9157E-02  0.0000E+00  0.0000E+00  0.0000E+00  0.0000E+00  2.3746E-02
 91  0.0000E+00  7.1074E-03  0.0000E+00  0.0000E+00  0.0000E+00  0.0000E+00  1.7604E-03  0.0000E+00  5.6893E-02
 92  0.0000E+00  1.5631E-02  0.0000E+00  0.0000E+00  0.0000E+00  0.0000E+00  0.0000E+00  0.0000E+00  0.0000E+00
 93  0.0000E+00  8.3668E-02  0.0000E+00  0.0000E+00  0.0000E+00  3.2304E-02  0.0000E+00  5.7232E-02  0.0000E+00
 94  0.0000E+00  2.7490E-01  0.0000E+00  0.0000E+00  0.0000E+00  0.0000E+00  4.2941E-01  0.0000E+00  0.0000E+00
 95  0.0000E+00  4.1014E-01  1.1881E-03  7.4545E-01  9.9080E-01  3.9953E-01  4.4968E-01  0.0000E+00  4.6691E-01
 96  0.0000E+00  5.4548E-01  1.0022E+00  3.2577E-01  0.0000E+00  2.7407E+00  8.2440E-01  3.6373E-01  1.3609E+00
 97  3.7237E+00  7.4352E-01  4.9351E-01  1.0590E+00  6.6404E-01  7.9048E-01  4.1882E-01  1.3286E+00  1.1797E+00
 98  8.6171E+00  7.6681E-01  6.6485E-01  2.2068E+00  4.6242E-01  3.7923E-02  1.2028E+00  7.8262E-01  2.2897E+00
 99  0.0000E+00  6.4406E-01  2.3403E-01  0.0000E+00  0.0000E+00  1.2718E+00  9.7243E-01  0.0000E+00  1.5668E+00
100  0.0000E+00  4.6102E-01  0.0000E+00  1.6726E+00  0.0000E+00  8.7947E-01  3.2994E-01  0.0000E+00  0.0000E+00
101  0.0000E+00  1.2847E-04  0.0000E+00  0.0000E+00  0.0000E+00  0.0000E+00  0.0000E+00  0.0000E+00  0.0000E+00
102  0.0000E+00  3.6246E-05  0.0000E+00  1.9480E-04  0.0000E+00  0.0000E+00  0.0000E+00  0.0000E+00  0.0000E+00
103  0.0000E+00  1.1688E-04  3.0054E-04  0.0000E+00  3.9158E-04  0.0000E+00  0.0000E+00  0.0000E+00  3.7202E-04
104  0.0000E+00  1.3093E-04  0.0000E+00  3.3458E-04  5.4032E-04  3.9382E-04  0.0000E+00  0.0000E+00  0.0000E+00
105  0.0000E+00  1.1028E-04  0.0000E+00  0.0000E+00  0.0000E+00  0.0000E+00  0.0000E+00  0.0000E+00  0.0000E+00
106  0.0000E+00  3.1292E-04  1.1188E-04  0.0000E+00  0.0000E+00  0.0000E+00  0.0000E+00  0.0000E+00  0.0000E+00
107  0.0000E+00  4.8865E-04  0.0000E+00  9.6300E-04  0.0000E+00  0.0000E+00  0.0000E+00  0.0000E+00  0.0000E+00
108  0.0000E+00  4.1018E-04  7.4540E-04  0.0000E+00  0.0000E+00  0.0000E+00  3.4996E-03  0.0000E+00  0.0000E+00
109  0.0000E+00  1.0774E-03  3.6799E-04  0.0000E+00  5.1150E-03  0.0000E+00  0.0000E+00  3.2051E-03  4.8317E-03
110  0.0000E+00  1.0636E-03  0.0000E+00  0.0000E+00  5.7616E-03  0.0000E+00  0.0000E+00  4.3868E-03  0.0000E+00
111  0.0000E+00  1.9299E-03  0.0000E+00  1.0503E-02  0.0000E+00  8.2610E-04  9.7958E-03  2.9449E-04  0.0000E+00
112  0.0000E+00  1.9209E-03  1.2604E-02  0.0000E+00  3.1312E-04  0.0000E+00  0.0000E+00  0.0000E+00  0.0000E+00
113  0.0000E+00  1.5550E-03  0.0000E+00  0.0000E+00  1.6413E-02  0.0000E+00  0.0000E+00  0.0000E+00  3.4133E-03
114  0.0000E+00  2.1005E-03  0.0000E+00  0.0000E+00  0.0000E+00  0.0000E+00  0.0000E+00  0.0000E+00  0.0000E+00
115  0.0000E+00  5.4043E-03  1.0114E-02  0.0000E+00  0.0000E+00  0.0000E+00  0.0000E+00  1.0265E-02  0.0000E+00
116  0.0000E+00  1.3064E-02  0.0000E+00  0.0000E+00  0.0000E+00  0.0000E+00  0.0000E+00  0.0000E+00  0.0000E+00
117  0.0000E+00  2.1005E-02  2.3803E-02  1.4735E-02  0.0000E+00  6.7997E-03  0.0000E+00  0.0000E+00  0.0000E+00
118  0.0000E+00  6.6068E-02  0.0000E+00  0.0000E+00  0.0000E+00  0.0000E+00  0.0000E+00  0.0000E+00  6.3561E-02
119  0.0000E+00  8.8503E-02  0.0000E+00  0.0000E+00  0.0000E+00  0.0000E+00  0.0000E+00  0.0000E+00  0.0000E+00
120  0.0000E+00  1.2155E-01  0.0000E+00  0.0000E+00  8.1762E-01  2.1945E-01  4.5078E-02  0.0000E+00  0.0000E+00
121  0.0000E+00  1.0691E-01  0.0000E+00  0.0000E+00  0.0000E+00  0.0000E+00  5.1701E-01  0.0000E+00  0.0000E+00
122  0.0000E+00  1.3102E-01  5.2347E-01  0.0000E+00  0.0000E+00  0.0000E+00  7.3928E-01  0.0000E+00  0.0000E+00
123  2.5533E-03  2.0453E-01  7.0089E-01  0.0000E+00  0.0000E+00  0.0000E+00  0.0000E+00  9.8360E-01  0.0000E+00
124  0.0000E+00  1.3361E-01  0.0000E+00  0.0000E+00  0.0000E+00  0.0000E+00  0.0000E+00  0.0000E+00  0.0000E+00
125  0.0000E+00  1.7096E-01  0.0000E+00  0.0000E+00  0.0000E+00  0.0000E+00  0.0000E+00  0.0000E+00  0.0000E+00
126  0.0000E+00  6.5480E-05  0.0000E+00  0.0000E+00  0.0000E+00  1.1496E-06  0.0000E+00  0.0000E+00  7.0883E-04
127  0.0000E+00  3.3097E-05  4.1371E-05  0.0000E+00  0.0000E+00  0.0000E+00  0.0000E+00  0.0000E+00  0.0000E+00
128  0.0000E+00  8.8100E-05  2.2766E-04  0.0000E+00  0.0000E+00  0.0000E+00  0.0000E+00  0.0000E+00  0.0000E+00
129  0.0000E+00  1.2163E-04  0.0000E+00  0.0000E+00  0.0000E+00  3.5395E-04  0.0000E+00  0.0000E+00  0.0000E+00
130  0.0000E+00  1.6871E-04  0.0000E+00  2.6472E-03  0.0000E+00  0.0000E+00  0.0000E+00  6.7422E-05  0.0000E+00
131  0.0000E+00  1.2829E-04  0.0000E+00  0.0000E+00  0.0000E+00  0.0000E+00  0.0000E+00  0.0000E+00  0.0000E+00
132  0.0000E+00  2.0651E-04  0.0000E+00  0.0000E+00  0.0000E+00  0.0000E+00  0.0000E+00  0.0000E+00  0.0000E+00
133  0.0000E+00  2.9163E-04  0.0000E+00  0.0000E+00  0.0000E+00  0.0000E+00  0.0000E+00  0.0000E+00  0.0000E+00
134  0.0000E+00  6.9365E-04  0.0000E+00  2.4552E-03  0.0000E+00  0.0000E+00  0.0000E+00  0.0000E+00  0.0000E+00
135  0.0000E+00  1.0193E-03  0.0000E+00  7.1766E-03  0.0000E+00  5.1980E-03  0.0000E+00  0.0000E+00  0.0000E+00
136  0.0000E+00  2.1606E-03  7.2249E-03  0.0000E+00  2.1497E-03  2.2040E-03  5.5059E-03  7.4711E-03  1.8552E-03
137  0.0000E+00  1.8566E-03  0.0000E+00  0.0000E+00  1.8635E-02  7.7050E-03  0.0000E+00  4.9421E-03  0.0000E+00
138  0.0000E+00  1.5495E-03  0.0000E+00  2.7409E-03  0.0000E+00  0.0000E+00  0.0000E+00  0.0000E+00  0.0000E+00
139  0.0000E+00  2.8356E-03  0.0000E+00  0.0000E+00  0.0000E+00  0.0000E+00  0.0000E+00  0.0000E+00  0.0000E+00
140  0.0000E+00  1.7525E-02  0.0000E+00  0.0000E+00  1.4015E-03  0.0000E+00  0.0000E+00  0.0000E+00  0.0000E+00
141  0.0000E+00  5.6147E-02  9.9730E-03  0.0000E+00  0.0000E+00  1.4032E-02  0.0000E+00  0.0000E+00  0.0000E+00
142  0.0000E+00  8.7961E-02  0.0000E+00  3.8451E-01  2.0380E-02  0.0000E+00  1.7666E-01  0.0000E+00  0.0000E+00
143  0.0000E+00  1.7968E-01  1.7419E-01  1.7188E-01  0.0000E+00  0.0000E+00  0.0000E+00  0.0000E+00  2.1742E-01
144  0.0000E+00  2.6226E-01  0.0000E+00  6.1325E-01  0.0000E+00  1.1180E+00  0.0000E+00  0.0000E+00  0.0000E+00
145  3.7686E+00  1.8002E+00  1.1380E+00  1.9618E+00  3.7181E+00  0.0000E+00  1.7211E+00  3.1248E+00  1.6982E+00
146  4.4895E+00  1.3153E+00  1.5239E+00  1.9490E+00  9.1763E-02  1.1772E+00  1.5203E+00  1.6548E+00  0.0000E+00
147  1.6432E+00  1.9405E+00  3.5339E+00  0.0000E+00  2.4975E+00  3.6916E+00  2.9657E+00  1.8064E+00  2.4417E+00
148  6.8197E-02  2.4689E+00  1.4519E+00  3.4103E+00  2.4395E+00  1.6808E+00  3.5765E+00  2.4839E+00  2.3308E-01
149  0.0000E+00  2.9135E+00  3.6038E+00  2.2265E+00  3.0622E+00  2.6738E+00  0.0000E+00  1.5724E+00  3.9011E+00
150  4.3796E-01  4.8459E+00  5.5187E+00  4.3772E+00  5.1682E+00  6.2058E+00  3.9759E+00  4.8377E+00  6.3818E+00

# AV, chi2 & Mass for <> & i_chain = 1 ...  7 solutions
AV       0.4834      0.4512      0.4530      0.4576      0.4506      0.4567      0.4592      0.4602      0.4555
chi2 1.4845E+00  1.5230E+00  1.5135E+00  1.5099E+00  1.5169E+00  1.5081E+00  1.5097E+00  1.5087E+00  1.5149E+00
Mass 2.1321E-10  2.2744E-10  2.2837E-10  2.2395E-10  2.2165E-10  2.2667E-10  2.1933E-10  2.2752E-10  2.3007E-10
 -13.11                                  [v0_min (km/s) before EX0s...]
  56.57                                  [vd_min (km/s) before EX0s...]


## Synthetic spectrum (Best Model) ##l_obs f_obs f_syn wei
 3070    [Nl_obs]
 3359.00    0.00000   0.48034   -2.000
 3360.00    0.10799   0.46673   -1.000
 3361.00    0.32086   0.47528   -1.000
 3362.00    0.32403   0.49952   -1.000
 3363.00    0.32655   0.52751   -1.000
 3364.00    0.34596   0.54427   -1.000
 3365.00    0.38333   0.54380   -1.000
 3366.00    0.38068   0.53377   -1.000
 3367.00    0.35427   0.52156   -1.000
 3368.00    0.36601   0.51036   -1.000
 3369.00    0.36056   0.49998   -1.000
 3370.00    0.35571   0.48793   -1.000
 3371.00    0.36856   0.47972   -1.000
 3372.00    0.37096   0.48281   -1.000
 3373.00    0.38309   0.49921   -1.000
 3374.00    0.39355   0.52263   -1.000
 3375.00    0.41034   0.54531   -1.000
 3376.00    0.42969   0.55722   -1.000
 3377.00    0.43808   0.55443   -1.000
 3378.00    0.42669   0.54204   -1.000
 3379.00    0.43123   0.53077   -1.000
 3380.00    0.43217   0.52779   -1.000
 3381.00    0.42023   0.53257   -1.000
 3382.00    0.42045   0.54054   -1.000
 3383.00    0.42652   0.54770   -1.000
 3384.00    0.44431   0.55337   -1.000
 3385.00    0.45393   0.55770   -1.000
 3386.00    0.45888   0.55630   -1.000
 3387.00    0.47321   0.55100   -1.000
 3388.00    0.48498   0.54900   -1.000
 3389.00    0.47169   0.55233   -1.000
 3390.00    0.47979   0.55669   -1.000
 3391.00    0.46619   0.55681   -1.000
 3392.00    0.46231   0.55089   -1.000
 3393.00    0.47294   0.54782   -1.000
 3394.00    0.48560   0.55438   -1.000
 3395.00    0.46995   0.56770   -1.000
 3396.00    0.48645   0.58240   -1.000
 3397.00    0.51017   0.59426   -1.000
 3398.00    0.51604   0.60040   -1.000
 3399.00    0.51858   0.59834   -1.000
 3400.00    0.51928   0.59033   -1.000
 3401.00    0.50674   0.57799   -1.000
 3402.00    0.51001   0.56356   -1.000
 3403.00    0.51813   0.55444   -1.000
 3404.00    0.50722   0.55175   -1.000
 3405.00    0.50178   0.55258   -1.000
 3406.00    0.50456   0.55032   -1.000
 3407.00    0.50663   0.54489   -1.000
 3408.00    0.50048   0.54124   -1.000
 3409.00    0.48122   0.54428   -1.000
 3410.00    0.48803   0.55072   -1.000
 3411.00    0.49534   0.55105   -1.000
 3412.00    0.49475   0.54554   -1.000
 3413.00    0.50106   0.53956   -1.000
 3414.00    0.50534   0.54010   -1.000
 3415.00    0.49482   0.54820   -1.000
 3416.00    0.48185   0.55877   -1.000
 3417.00    0.49311   0.56944   -1.000
 3418.00    0.52533   0.57983   -1.000
 3419.00    0.54456   0.58906   -1.000
 3420.00    0.54094   0.59446   -1.000
 3421.00    0.53900   0.59211   -1.000
 3422.00    0.55471   0.58218   -1.000
 3423.00    0.54262   0.57153   -1.000
 3424.00    0.52824   0.56713   -1.000
 3425.00    0.52274   0.56951   -1.000
 3426.00    0.53935   0.57511   -1.000
 3427.00    0.56620   0.58448  145.180
 3428.00    0.56503   0.59824   -1.000
 3429.00    0.56039   0.61032   -1.000
 3430.00    0.56259   0.61103   -1.000
 3431.00    0.55976   0.59812   -1.000
 3432.00    0.55854   0.58282   -1.000
 3433.00    0.55663   0.57720   -1.000
 3434.00    0.56931   0.58497  144.968
 3435.00    0.57314   0.59641   -1.000
 3436.00    0.57099   0.59879   -1.000
 3437.00    0.55733   0.58959   -1.000
 3438.00    0.54052   0.57308   -1.000
 3439.00    0.51619   0.55333   -1.000
 3440.00    0.49335   0.53336   -1.000
 3441.00    0.48838   0.51840   -1.000
 3442.00    0.50318   0.51379  180.023
 3443.00    0.50868   0.51889  179.917
 3444.00    0.52146   0.52969  177.003
 3445.00    0.52652   0.54389  169.014
 3446.00    0.53266   0.56212   -1.000
 3447.00    0.55524   0.58213   -1.000
 3448.00    0.56379   0.59840   -1.000
 3449.00    0.55479   0.60334   -1.000
 3450.00    0.56013   0.59251   -1.000
 3451.00    0.59423   0.57417   -1.000
 3452.00    0.59484   0.56076   -1.000
 3453.00    0.57793   0.55849   -1.000
 3454.00    0.58789   0.56480   -1.000
 3455.00    0.59872   0.57250   -1.000
 3456.00    0.59911   0.57518   -1.000
 3457.00    0.59880   0.57079   -1.000
 3458.00    0.59557   0.56210   -1.000
 3459.00    0.58065   0.55232   -1.000
 3460.00    0.57554   0.54382   -1.000
 3461.00    0.56165   0.54342  146.334
 3462.00    0.55888   0.55464  203.805
 3463.00    0.59403   0.56812   -1.000
 3464.00    0.60032   0.57285   -1.000
 3465.00    0.60573   0.57028   -1.000
 3466.00    0.60142   0.56984   -1.000
 3467.00    0.58581   0.57698   -1.000
 3468.00    0.58925   0.58947  824.993
 3469.00    0.58995   0.60058   -1.000
 3470.00    0.60717   0.60373   -1.000
 3471.00    0.61633   0.59770   -1.000
 3472.00    0.61014   0.58554   -1.000
 3473.00    0.60169   0.56881   -1.000
 3474.00    0.58254   0.55179   -1.000
 3475.00    0.56944   0.54128   -1.000
 3476.00    0.55044   0.54170  147.589
 3477.00    0.56075   0.55226  150.331
 3478.00    0.57956   0.56648  205.831
 3479.00    0.58965   0.58008   -1.000
 3480.00    0.60561   0.59000   -1.000
 3481.00    0.61539   0.59235   -1.000
 3482.00    0.61861   0.58765   -1.000
 3483.00    0.63148   0.58157   -1.000
 3484.00    0.63273   0.58131   -1.000
 3485.00    0.62555   0.59029   -1.000
 3486.00    0.63185   0.60157   -1.000
 3487.00    0.64306   0.60483   -1.000
 3488.00    0.63656   0.59701   -1.000
 3489.00    0.62178   0.58191   -1.000
 3490.00    0.60098   0.56978   -1.000
 3491.00    0.58606   0.56871   -1.000
 3492.00    0.59328   0.57490   -1.000
 3493.00    0.58645   0.57877   -1.000
 3494.00    0.57705   0.57605  824.993
 3495.00    0.57971   0.56736   -1.000
 3496.00    0.58474   0.55997   -1.000
 3497.00    0.57774   0.56240   -1.000
 3498.00    0.57823   0.57280   -1.000
 3499.00    0.59501   0.58333   -1.000
 3500.00    0.60829   0.58681   -1.000
 3501.00    0.61456   0.58662   -1.000
 3502.00    0.62855   0.58919   -1.000
 3503.00    0.63089   0.59240   -1.000
 3504.00    0.62114   0.59131   -1.000
 3505.00    0.61470   0.58504   -1.000
 3506.00    0.60579   0.57832   -1.000
 3507.00    0.62105   0.57495   -1.000
 3508.00    0.62373   0.57439   -1.000
 3509.00    0.61197   0.57381   -1.000
 3510.00    0.62029   0.57072   -1.000
 3511.00    0.61300   0.56566   -1.000
 3512.00    0.60466   0.55919   -1.000
 3513.00    0.60157   0.55383   -1.000
 3514.00    0.59046   0.55541   -1.000
 3515.00    0.59083   0.56777   -1.000
 3516.00    0.59935   0.58792   -1.000
 3517.00    0.61294   0.60402   -1.000
 3518.00    0.63364   0.60637   -1.000
 3519.00    0.63551   0.59514   -1.000
 3520.00    0.60727   0.57946   -1.000
 3521.00    0.57237   0.56709   -1.000
 3522.00    0.57704   0.55828   -1.000
 3523.00    0.58253   0.54931   -1.000
 3524.00    0.56535   0.53961   -1.000
 3525.00    0.54583   0.53481  146.184
 3526.00    0.54259   0.54113  149.550
 3527.00    0.55700   0.55659  204.652
 3528.00    0.58675   0.57561   -1.000
 3529.00    0.60407   0.59152   -1.000
 3530.00    0.62143   0.60027   -1.000
 3531.00    0.63073   0.60221   -1.000
 3532.00    0.61551   0.59876   -1.000
 3533.00    0.61182   0.59313   -1.000
 3534.00    0.63369   0.59015   -1.000
 3535.00    0.63373   0.59268   -1.000
 3536.00    0.61782   0.60063   -1.000
 3537.00    0.61764   0.61052   -1.000
 3538.00    0.62623   0.61948   -1.000
 3539.00    0.64478   0.62511   -1.000
 3540.00    0.64140   0.62539   -1.000
 3541.00    0.61680   0.62256   -1.000
 3542.00    0.61021   0.62186   -1.000
 3543.00    0.60995   0.62555   -1.000
 3544.00    0.61306   0.62995   -1.000
 3545.00    0.63074   0.63020  824.993
 3546.00    0.64439   0.62667   -1.000
 3547.00    0.62616   0.62293  824.993
 3548.00    0.63460   0.62171   -1.000
 3549.00    0.63038   0.62325   -1.000
 3550.00    0.62056   0.62619   -1.000
 3551.00    0.60116   0.62686   -1.000
 3552.00    0.61489   0.62151   -1.000
 3553.00    0.60757   0.61273   -1.000
 3554.00    0.59359   0.60697   -1.000
 3555.00    0.59495   0.60777   -1.000
 3556.00    0.59996   0.61346   -1.000
 3557.00    0.59878   0.61949   -1.000
 3558.00    0.61150   0.62183   -1.000
 3559.00    0.61219   0.62173   -1.000
 3560.00    0.60694   0.62317   -1.000
 3561.00    0.61835   0.62661   -1.000
 3562.00    0.62616   0.62650  824.993
 3563.00    0.61700   0.61610  824.993
 3564.00    0.60504   0.59574   -1.000
 3565.00    0.58789   0.57574   -1.000
 3566.00    0.55534   0.56497  147.837
 3567.00    0.54198   0.56315   -1.000
 3568.00    0.53910   0.56308   -1.000
 3569.00    0.53511   0.55731   -1.000
 3570.00    0.53637   0.54765  155.465
 3571.00    0.54309   0.54222  155.928
 3572.00    0.55555   0.54411  150.327
 3573.00    0.55767   0.54931  198.222
 3574.00    0.56837   0.55483   -1.000
 3575.00    0.56313   0.56124  824.993
 3576.00    0.55629   0.56806   -1.000
 3577.00    0.57316   0.57252  824.993
 3578.00    0.57173   0.57078  824.993
 3579.00    0.55313   0.56124   -1.000
 3580.00    0.53169   0.54805  154.379
 3581.00    0.51126   0.53677   -1.000
 3582.00    0.51227   0.53283   -1.000
 3583.00    0.53240   0.53493  173.240
 3584.00    0.53489   0.53211  175.028
 3585.00    0.52155   0.51998  179.891
 3586.00    0.49919   0.50706  184.849
 3587.00    0.49099   0.50473  183.741
 3588.00    0.50454   0.51664  174.189
 3589.00    0.52140   0.53741  165.163
 3590.00    0.54777   0.55856  155.031
 3591.00    0.57686   0.57350  196.483
 3592.00    0.58979   0.58032   -1.000
 3593.00    0.58907   0.58297   -1.000
 3594.00    0.58919   0.58796  824.993
 3595.00    0.59717   0.59790  824.993
 3596.00    0.60739   0.60861  824.993
 3597.00    0.61539   0.61641  824.993
 3598.00    0.62516   0.62139  824.993
 3599.00    0.62593   0.62389  824.993
 3600.00    0.62841   0.62055   -1.000
 3601.00    0.62073   0.60896   -1.000
 3602.00    0.60174   0.59381   -1.000
 3603.00    0.58110   0.58223  824.993
 3604.00    0.57602   0.57922  824.993
 3605.00    0.56428   0.58126   -1.000
 3606.00    0.57540   0.58125   -1.000
 3607.00    0.57273   0.57711   -1.000
 3608.00    0.56926   0.57119  824.993
 3609.00    0.55810   0.56789   -1.000
 3610.00    0.55639   0.56936   -1.000
 3611.00    0.56302   0.57451   -1.000
 3612.00    0.56718   0.58126   -1.000
 3613.00    0.58084   0.58826   -1.000
 3614.00    0.58191   0.59764   -1.000
 3615.00    0.59295   0.60768   -1.000
 3616.00    0.59318   0.60788   -1.000
 3617.00    0.57979   0.59407   -1.000
 3618.00    0.56567   0.57574   -1.000
 3619.00    0.56444   0.56754  399.963
 3620.00    0.57037   0.57567  193.548
 3621.00    0.58269   0.59281   -1.000
 3622.00    0.60362   0.60838   -1.000
 3623.00    0.61972   0.61801  824.993
 3624.00    0.61938   0.62685   -1.000
 3625.00    0.61872   0.64084   -1.000
 3626.00    0.64204   0.65770   -1.000
 3627.00    0.64926   0.66826   -1.000
 3628.00    0.63496   0.66168   -1.000
 3629.00    0.61132   0.63710   -1.000
 3630.00    0.59240   0.60607   -1.000
 3631.00    0.57823   0.58469   -1.000
 3632.00    0.56355   0.58133   -1.000
 3633.00    0.56971   0.59182   -1.000
 3634.00    0.58449   0.60407   -1.000
 3635.00    0.60449   0.60988   -1.000
 3636.00    0.62356   0.61297   -1.000
 3637.00    0.62677   0.62101   -1.000
 3638.00    0.62694   0.63339   -1.000
 3639.00    0.64002   0.64359   -1.000
 3640.00    0.64223   0.64607   -1.000
 3641.00    0.62758   0.63936   -1.000
 3642.00    0.62229   0.62632   -1.000
 3643.00    0.62026   0.61267   -1.000
 3644.00    0.60666   0.60270  824.993
 3645.00    0.59705   0.59648  824.993
 3646.00    0.59883   0.59233   -1.000
 3647.00    0.59121   0.59081  824.993
 3648.00    0.59374   0.59214  824.993
 3649.00    0.58570   0.59563   -1.000
 3650.00    0.59979   0.60215  824.993
 3651.00    0.62076   0.61264   -1.000
 3652.00    0.63099   0.62563   -1.000
 3653.00    0.64460   0.63765   -1.000
 3654.00    0.64596   0.64759  824.993
 3655.00    0.63228   0.65620   -1.000
 3656.00    0.64084   0.66337   -1.000
 3657.00    0.64955   0.66787   -1.000
 3658.00    0.64023   0.66936   -1.000
 3659.00    0.64202   0.66834   -1.000
 3660.00    0.64337   0.66432   -1.000
 3661.00    0.64328   0.65752   -1.000
 3662.00    0.64144   0.65036   -1.000
 3663.00    0.64026   0.64580   -1.000
 3664.00    0.62982   0.64545   -1.000
 3665.00    0.63543   0.64743   -1.000
 3666.00    0.65781   0.64828   -1.000
 3667.00    0.65390   0.64541   -1.000
 3668.00    0.63171   0.63934   -1.000
 3669.00    0.62057   0.63482   -1.000
 3670.00    0.60605   0.63590   -1.000
 3671.00    0.61764   0.64293   -1.000
 3672.00    0.64346   0.65167   -1.000
 3673.00    0.65063   0.65637   -1.000
 3674.00    0.63309   0.65466   -1.000
 3675.00    0.62299   0.64706   -1.000
 3676.00    0.62827   0.63518   -1.000
 3677.00    0.62465   0.62219  824.993
 3678.00    0.61402   0.61261  824.993
 3679.00    0.61859   0.60998   -1.000
 3680.00    0.62206   0.61298   -1.000
 3681.00    0.62160   0.61857   -1.000
 3682.00    0.62505   0.62390  824.993
 3683.00    0.63413   0.62522   -1.000
 3684.00    0.61770   0.62031  824.993
 3685.00    0.59855   0.61039   -1.000
 3686.00    0.58875   0.60168   -1.000
 3687.00    0.58171   0.60243   -1.000
 3688.00    0.58930   0.61611   -1.000
 3689.00    0.61571   0.63575   -1.000
 3690.00    0.63377   0.65100   -1.000
 3691.00    0.64528   0.65701   -1.000
 3692.00    0.65346   0.65663  824.993
 3693.00    0.65060   0.65582  824.993
 3694.00    0.65241   0.65600  824.993
 3695.00    0.65363   0.65494  824.993
 3696.00    0.63542   0.65178   -1.000
 3697.00    0.62833   0.65251   -1.000
 3698.00    0.65235   0.66440   -1.000
 3699.00    0.66154   0.68413   -1.000
 3700.00    0.67299   0.69837   -1.000
 3701.00    0.67702   0.69099   -1.000
 3702.00    0.65112   0.65986   -1.000
 3703.00    0.61265   0.61905   -1.000
 3704.00    0.59010   0.58666   -1.000
 3705.00    0.58772   0.57484   -1.000
 3706.00    0.59400   0.58253   -1.000
 3707.00    0.60902   0.59862   -1.000
 3708.00    0.62467   0.61076   -1.000
 3709.00    0.61955   0.61292   -1.000
 3710.00    0.60792   0.60811  824.993
 3711.00    0.61233   0.60611   -1.000
 3712.00    0.62098   0.61589   -1.000
 3713.00    0.64534   0.64002   -1.000
 3714.00    0.66946   0.67150  824.993
 3715.00    0.68042   0.69666   -1.000
 3716.00    0.69251   0.70666   -1.000
 3717.00    0.68961   0.69921   -1.000
 3718.00    0.65323   0.67100   -1.000
 3719.00    0.60197   0.62223   -1.000
 3720.00    0.55673   0.56918   -1.000
 3721.00    0.53065   0.53642  428.290
 3722.00    0.54355   0.53738  192.781
 3723.00    0.58488   0.57022   -1.000
 3724.00    0.63430   0.61930   -1.000
 3725.00    0.66178   0.65955   -1.000
 3726.00    0.67396   0.68011   -1.000
 3727.00    0.67242   0.68801   -1.000
 3728.00    0.67940   0.69229   -1.000
 3729.00    0.68219   0.69394   -1.000
 3730.00    0.67741   0.68469   -1.000
 3731.00    0.65274   0.65339  824.993
 3732.00    0.60447   0.60162  824.993
 3733.00    0.54398   0.54610  413.729
 3734.00    0.50283   0.50506  148.386
 3735.00    0.48692   0.49418  163.198
 3736.00    0.51197   0.51806  165.263
 3737.00    0.55092   0.56546  154.794
 3738.00    0.60813   0.62121  187.951
 3739.00    0.66273   0.67242   -1.000
 3740.00    0.69790   0.70596   -1.000
 3741.00    0.71245   0.71612  824.993
 3742.00    0.69536   0.70645   -1.000
 3743.00    0.68453   0.68617  824.993
 3744.00    0.67061   0.66270   -1.000
 3745.00    0.63564   0.63836  824.993
 3746.00    0.60028   0.61019   -1.000
 3747.00    0.57921   0.57591  430.727
 3748.00    0.53533   0.53962  148.555
 3749.00    0.50023   0.51389  156.133
 3750.00    0.51568   0.51477  205.033
 3751.00    0.55037   0.54810  824.993
 3752.00    0.60816   0.60266   -1.000
 3753.00    0.66774   0.66012   -1.000
 3754.00    0.70945   0.70359   -1.000
 3755.00    0.73308   0.72532   -1.000
 3756.00    0.73307   0.72368   -1.000
 3757.00    0.69991   0.70441   -1.000
 3758.00    0.67832   0.68191   -1.000
 3759.00    0.67176   0.67048  824.993
 3760.00    0.68470   0.67355   -1.000
 3761.00    0.70457   0.68537   -1.000
 3762.00    0.71156   0.69721   -1.000
 3763.00    0.70828   0.70268   -1.000
 3764.00    0.70548   0.69946   -1.000
 3765.00    0.69845   0.68803   -1.000
 3766.00    0.68059   0.66994   -1.000
 3767.00    0.66411   0.64438   -1.000
 3768.00    0.64039   0.61284   -1.000
 3769.00    0.61481   0.58227   -1.000
 3770.00    0.58630   0.56382   -1.000
 3771.00    0.59502   0.57081   -1.000
 3772.00    0.62786   0.60301   -1.000
 3773.00    0.67075   0.64451   -1.000
 3774.00    0.70129   0.67839  100.150
 3775.00    0.69976   0.70065   99.900
 3776.00    0.72070   0.71752   99.767
 3777.00    0.73656   0.73733   99.502
 3778.00    0.77028   0.76078   98.931
 3779.00    0.79836   0.78381   97.003
 3780.00    0.80553   0.80272   93.968
 3781.00    0.81272   0.81395   92.202
 3782.00    0.82085   0.81720   91.622
 3783.00    0.82738   0.81393   91.224
 3784.00    0.82467   0.80451   91.817
 3785.00    0.81256   0.78865   94.682
 3786.00    0.79562   0.76823  100.325
 3787.00    0.77269   0.74789  107.312
 3788.00    0.75488   0.73467  111.759
 3789.00    0.75290   0.73009  113.214
 3790.00    0.74655   0.72897  112.586
 3791.00    0.73585   0.72430  110.761
 3792.00    0.72356   0.71107  110.371
 3793.00    0.69659   0.68722  112.754
 3794.00    0.66982   0.65305  116.982
 3795.00    0.63277   0.61275  120.877
 3796.00    0.58933   0.57083  125.211
 3797.00    0.54660   0.53532  131.953
 3798.00    0.53781   0.52312  137.326
 3799.00    0.56334   0.54678  135.190
 3800.00    0.60628   0.60038  127.017
 3801.00    0.66601   0.66247  115.944
 3802.00    0.71686   0.71317  107.770
 3803.00    0.74064   0.74512  103.721
 3804.00    0.76309   0.76134  101.901
 3805.00    0.76725   0.76497  101.897
 3806.00    0.77409   0.76440  104.092
 3807.00    0.77577   0.77022  107.632
 3808.00    0.78810   0.78564  108.411
 3809.00    0.81685   0.80521  105.116
 3810.00    0.83052   0.81826  101.742
 3811.00    0.82228   0.81547  101.448
 3812.00    0.80617   0.79636  104.367
 3813.00    0.78411   0.77040  110.317
 3814.00    0.76218   0.75000  117.150
 3815.00    0.75287   0.74450  123.757
 3816.00    0.76014   0.75251  127.353
 3817.00    0.78036   0.76279  124.299
 3818.00    0.78056   0.76239  121.221
 3819.00    0.76634   0.74812  124.992
 3820.00    0.73487   0.73214  133.406
 3821.00    0.71947   0.72735  137.712
 3822.00    0.74109   0.73204  133.536
 3823.00    0.74589   0.73036  129.291
 3824.00    0.71865   0.71353  133.112
 3825.00    0.69051   0.69088   46.258
 3826.00    0.67663   0.67379   15.191
 3827.00    0.67253   0.66407   15.398
 3828.00    0.66703   0.65683   15.227
 3829.00    0.66067   0.64734   14.978
 3830.00    0.63669   0.63136   14.839
 3831.00    0.61273   0.60511   15.153
 3832.00    0.58039   0.56707   15.983
 3833.00    0.54028   0.52269   17.087
 3834.00    0.50851   0.48790   17.375
 3835.00    0.49013   0.47420   16.923
 3836.00    0.50906   0.48273   16.310
 3837.00    0.53109   0.50783   16.133
 3838.00    0.54938   0.54072   16.503
 3839.00    0.56848   0.57523   16.729
 3840.00    0.61020   0.61223   16.245
 3841.00    0.66303   0.65233   19.827
 3842.00    0.71030   0.69301  137.214
 3843.00    0.73017   0.72964  125.170
 3844.00    0.75683   0.75625  118.708
 3845.00    0.77128   0.77356  117.143
 3846.00    0.77935   0.78621  117.162
 3847.00    0.80007   0.79560  117.164
 3848.00    0.81906   0.79903  118.038
 3849.00    0.80860   0.79728  121.409
 3850.00    0.79489   0.79749  125.535
 3851.00    0.79785   0.80610  126.202
 3852.00    0.80964   0.82019  123.061
 3853.00    0.82227   0.82965  120.785
 3854.00    0.81728   0.82804  122.255
 3855.00    0.80323   0.81789  125.568
 3856.00    0.78171   0.80456   -1.000
 3857.00    0.77292   0.79141   -1.000
 3858.00    0.76624   0.78089   44.572
 3859.00    0.75643   0.77766   14.520
 3860.00    0.75212   0.78570   15.136
 3861.00    0.77808   0.80299   18.879
 3862.00    0.80741   0.82100  129.525
 3863.00    0.83946   0.83090  118.156
 3864.00    0.84099   0.83160  114.424
 3865.00    0.83489   0.82870  115.677
 3866.00    0.82076   0.82769  117.887
 3867.00    0.81762   0.82997  119.779
 3868.00    0.81430   0.83142  122.724
 3869.00    0.81288   0.82516  128.048
 3870.00    0.80265   0.80911  135.172
 3871.00    0.76321   0.78797   45.933
 3872.00    0.74118   0.77023   18.414
 3873.00    0.75711   0.76517  137.057
 3874.00    0.77534   0.77342  124.200
 3875.00    0.78833   0.78296  114.609
 3876.00    0.78548   0.77955  112.276
 3877.00    0.75982   0.76287  117.330
 3878.00    0.73050   0.74567  126.937
 3879.00    0.72513   0.73799  133.618
 3880.00    0.73136   0.73868  134.201
 3881.00    0.72389   0.73738  134.964
 3882.00    0.70658   0.72840  136.751
 3883.00    0.69398   0.71300  130.893
 3884.00    0.68340   0.68951  120.113
 3885.00    0.65753   0.65348  115.228
 3886.00    0.62061   0.60553  118.509
 3887.00    0.58388   0.55789  123.852
 3888.00    0.55230   0.52835  124.858
 3889.00    0.54457   0.52911  123.436
 3890.00    0.58823   0.56203   -1.000
 3891.00    0.64679   0.61406   -1.000
 3892.00    0.68268   0.66187   99.836
 3893.00    0.71146   0.69226   97.356
 3894.00    0.71966   0.70920   98.131
 3895.00    0.73225   0.72335   99.414
 3896.00    0.75301   0.74034   98.603
 3897.00    0.76350   0.75677   95.809
 3898.00    0.77364   0.76766   94.217
 3899.00    0.78274   0.77343   95.952
 3900.00    0.79073   0.78070   96.662
 3901.00    0.80291   0.79116   95.336
 3902.00    0.81630   0.79922   94.893
 3903.00    0.81911   0.80061   96.585
 3904.00    0.80674   0.79680  100.409
 3905.00    0.79934   0.79512  102.944
 3906.00    0.80127   0.80199  105.143
 3907.00    0.82817   0.82064  102.867
 3908.00    0.86235   0.84686   96.490
 3909.00    0.87315   0.86939   90.968
 3910.00    0.89012   0.88171   89.203
 3911.00    0.89232   0.88542   88.414
 3912.00    0.87829   0.88266   87.644
 3913.00    0.87514   0.87456   87.496
 3914.00    0.86134   0.86568   88.751
 3915.00    0.84479   0.86088   90.676
 3916.00    0.85346   0.85922   92.591
 3917.00    0.85198   0.85553   93.757
 3918.00    0.83261   0.84716   95.359
 3919.00    0.81975   0.83662   98.519
 3920.00    0.80366   0.82819   -1.000
 3921.00    0.80421   0.82445   -1.000
 3922.00    0.81301   0.82558  108.709
 3923.00    0.82579   0.82837  107.413
 3924.00    0.83270   0.82724  106.059
 3925.00    0.80987   0.81658  107.970
 3926.00    0.77517   0.79314   -1.000
 3927.00    0.73999   0.75844   -1.000
 3928.00    0.69100   0.71543   50.640
 3929.00    0.63600   0.66593   16.551
 3930.00    0.57310   0.60614   19.400
 3931.00    0.51241   0.53277   22.747
 3932.00    0.44440   0.45679   26.864
 3933.00    0.40737   0.40565   30.974
 3934.00    0.39404   0.40631   32.823
 3935.00    0.43629   0.45788   30.647
 3936.00    0.51215   0.53433   26.235
 3937.00    0.58973   0.61312   21.642
 3938.00    0.65253   0.68161   17.878
 3939.00    0.70492   0.73346   19.559
 3940.00    0.73148   0.76882   -1.000
 3941.00    0.75089   0.78893   -1.000
 3942.00    0.77161   0.79765   -1.000
 3943.00    0.78273   0.80216   -1.000
 3944.00    0.80042   0.80841  121.201
 3945.00    0.81515   0.81834  113.756
 3946.00    0.83292   0.82947  104.154
 3947.00    0.83208   0.83640   99.300
 3948.00    0.83067   0.83777   98.383
 3949.00    0.84198   0.83680   96.993
 3950.00    0.84680   0.83584   93.459
 3951.00    0.85925   0.83456   91.196
 3952.00    0.85537   0.83457   91.889
 3953.00    0.85612   0.83758   92.581
 3954.00    0.86189   0.83947   90.726
 3955.00    0.85027   0.83500   89.168
 3956.00    0.82538   0.82457   90.715
 3957.00    0.82179   0.81463   93.690
 3958.00    0.83569   0.80823   94.447
 3959.00    0.82224   0.79765   93.569
 3960.00    0.79011   0.77468   97.470
 3961.00    0.74138   0.74063  108.564
 3962.00    0.69669   0.70247  122.225
 3963.00    0.66317   0.66436  133.685
 3964.00    0.61467   0.61984   49.519
 3965.00    0.55719   0.55842   15.559
 3966.00    0.47455   0.47769   18.450
 3967.00    0.38364   0.39198   22.750
 3968.00    0.32128   0.32966   27.274
 3969.00    0.30480   0.31317   28.962
 3970.00    0.34180   0.34693   26.064
 3971.00    0.41774   0.41615   21.440
 3972.00    0.50708   0.49800   17.694
 3973.00    0.58000   0.57466   19.115
 3974.00    0.64785   0.63984  129.491
 3975.00    0.70549   0.69302  114.917
 3976.00    0.74998   0.73661  104.118
 3977.00    0.78490   0.77185   96.453
 3978.00    0.81433   0.80123   90.946
 3979.00    0.84256   0.82391   86.156
 3980.00    0.85465   0.83680   82.313
 3981.00    0.86883   0.84151   81.741
 3982.00    0.86805   0.84379   82.569
 3983.00    0.87485   0.85047   83.709
 3984.00    0.88732   0.86349   82.800
 3985.00    0.90361   0.87769   81.066
 3986.00    0.91568   0.88855   79.534
 3987.00    0.92119   0.89804   78.200
 3988.00    0.94293   0.90754   76.857
 3989.00    0.95152   0.91443   76.360
 3990.00    0.93809   0.92035   76.497
 3991.00    0.95341   0.92829   75.703
 3992.00    0.96260   0.93767   73.893
 3993.00    0.97197   0.94390   72.678
 3994.00    0.96387   0.94147   73.811
 3995.00    0.94962   0.93023   75.605
 3996.00    0.93949   0.91660   77.282
 3997.00    0.93450   0.91002   78.577
 3998.00    0.93909   0.91445   78.675
 3999.00    0.94670   0.92647   76.422
 4000.00    0.96628   0.94012   73.061
 4001.00    0.98319   0.95007   70.896
 4002.00    0.99373   0.95232   69.819
 4003.00    0.98627   0.94528   69.334
 4004.00    0.95962   0.93099   71.466
 4005.00    0.93956   0.91836   76.209
 4006.00    0.93838   0.91869   79.132
 4007.00    0.95453   0.93314   77.503
 4008.00    0.97369   0.95237   73.229
 4009.00    0.98791   0.96600   70.787
 4010.00    0.99154   0.97180   69.936
 4011.00    0.97514   0.97256   69.296
 4012.00    1.00612   0.97135   69.236
 4013.00    1.02635   0.97128   -1.000
 4014.00    1.00503   0.97391   69.908
 4015.00    1.01381   0.97825   69.258
 4016.00    1.00515   0.98235   68.597
 4017.00    0.99736   0.98633   69.288
 4018.00    0.99657   0.99131   69.899
 4019.00    1.00392   0.99616   69.368
 4020.00    1.01410   0.99790   68.535
 4021.00    1.01388   0.99466   68.912
 4022.00    1.00810   0.98791   69.821
 4023.00    0.99432   0.98004   70.225
 4024.00    0.97732   0.97437   70.706
 4025.00    0.97972   0.97575   70.759
 4026.00    1.00096   0.98574   68.772
 4027.00    1.01551   0.99701   66.521
 4028.00    1.01942   0.99772   65.613
 4029.00    1.00515   0.98444   66.697
 4030.00    0.96920   0.96386   69.896
 4031.00    0.94955   0.94657   74.385
 4032.00    0.95132   0.93947   77.000
 4033.00    0.95802   0.94315   77.460
 4034.00    0.96314   0.95584   76.090
 4035.00    0.98415   0.97541   73.274
 4036.00    1.01053   0.99868   69.613
 4037.00    1.02685   1.01897   66.389
 4038.00    1.02968   1.02778   64.517
 4039.00    1.01818   1.02456   64.661
 4040.00    1.01082   1.01660   66.122
 4041.00    1.00730   1.00905   67.531
 4042.00    1.00431   0.99918   68.158
 4043.00    0.99400   0.97927   69.079
 4044.00    0.95929   0.95070   73.190
 4045.00    0.91597   0.92920   80.204
 4046.00    0.90946   0.92950   84.326
 4047.00    0.95759   0.95221   79.554
 4048.00    0.99332   0.98236   72.330
 4049.00    1.00719   1.00445   68.495
 4050.00    1.01666   1.01371   66.834
 4051.00    1.01746   1.01339   66.345
 4052.00    1.01063   1.00671   67.117
 4053.00    1.00000   0.99739   68.988
 4054.00    0.98998   0.98990   70.628
 4055.00    0.98637   0.98550   71.596
 4056.00    0.98426   0.98315   72.134
 4057.00    0.98295   0.98385   72.676
 4058.00    0.98679   0.99022   73.109
 4059.00    0.99689   1.00006   71.818
 4060.00    1.00359   1.00319   69.404
 4061.00    1.00501   0.99171   68.582
 4062.00    0.97638   0.96872   70.592
 4063.00    0.94092   0.94525   75.861
 4064.00    0.93527   0.93156   79.784
 4065.00    0.94892   0.93175   77.794
 4066.00    0.96065   0.94234   74.282
 4067.00    0.97114   0.95440   72.479
 4068.00    0.98576   0.96188   70.429
 4069.00    0.99974   0.96136   68.424
 4070.00    0.99321   0.95121   68.300
 4071.00    0.97203   0.93740   71.200
 4072.00    0.96900   0.93140   73.714
 4073.00    0.97718   0.93596   72.622
 4074.00    0.97727   0.94035   70.346
 4075.00    0.96795   0.93240   70.775
 4076.00    0.92795   0.91324   74.840
 4077.00    0.90956   0.89703   80.531
 4078.00    0.91729   0.89739   81.790
 4079.00    0.93613   0.91671   78.325
 4080.00    0.96923   0.94264   72.854
 4081.00    0.98414   0.95888   68.408
 4082.00    0.98666   0.95940   67.045
 4083.00    0.97233   0.94967   68.501
 4084.00    0.95934   0.93986   70.638
 4085.00    0.95636   0.93770   71.247
 4086.00    0.97039   0.94487   69.847
 4087.00    0.98679   0.95670   67.373
 4088.00    0.98936   0.96580   64.857
 4089.00    0.99341   0.96682   63.255
 4090.00    0.98434   0.96012   63.811
 4091.00    0.95784   0.95035   65.143
 4092.00    0.94670   0.93887   66.263
 4093.00    0.94497   0.92452   66.859
 4094.00    0.92577   0.90678   67.131
 4095.00    0.90455   0.88443   68.766
 4096.00    0.87944   0.85833   71.835
 4097.00    0.85310   0.82803   73.842
 4098.00    0.82563   0.79024   74.455
 4099.00    0.78854   0.74050   -1.000
 4100.00    0.71675   0.68393   81.127
 4101.00    0.64838   0.64228   88.424
 4102.00    0.64266   0.63791   92.922
 4103.00    0.69520   0.67688   89.524
 4104.00    0.76123   0.74060   81.930
 4105.00    0.80890   0.80089   75.961
 4106.00    0.84926   0.84181   72.278
 4107.00    0.87778   0.86527   70.480
 4108.00    0.88993   0.87774   70.383
 4109.00    0.89832   0.88584   71.226
 4110.00    0.90938   0.89448   72.581
 4111.00    0.92498   0.90628   73.253
 4112.00    0.93696   0.92156   72.132
 4113.00    0.94545   0.93835   70.553
 4114.00    0.96293   0.95433   69.377
 4115.00    0.97543   0.96534   68.391
 4116.00    0.98282   0.96807   67.930
 4117.00    0.97879   0.96315   68.513
 4118.00    0.96204   0.95489   70.179
 4119.00    0.95610   0.94923   72.292
 4120.00    0.96775   0.95006   72.746
 4121.00    0.96865   0.95529   71.813
 4122.00    0.96636   0.96117   71.233
 4123.00    0.98098   0.96777   71.166
 4124.00    0.99096   0.97561   70.276
 4125.00    1.00116   0.98153   69.206
 4126.00    0.99631   0.98176   69.227
 4127.00    0.97891   0.97706   70.308
 4128.00    0.98079   0.97207   71.671
 4129.00    0.96822   0.96858   72.190
 4130.00    0.96987   0.96295   72.652
 4131.00    0.96551   0.95376   73.850
 4132.00    0.95575   0.94624   76.237
 4133.00    0.93742   0.94805   78.226
 4134.00    0.94315   0.96103   77.817
 4135.00    0.96692   0.97988   74.893
 4136.00    0.99342   0.99861   71.322
 4137.00    1.01235   1.01393   69.264
 4138.00    1.01983   1.02503   68.186
 4139.00    1.02638   1.02964   67.273
 4140.00    1.02464   1.02307   67.341
 4141.00    0.99595   1.00449   69.180
 4142.00    0.96031   0.98037   73.316
 4143.00    0.93965   0.96253   79.200
 4144.00    0.94505   0.96147   81.927
 4145.00    0.96540   0.97610   78.332
 4146.00    0.98970   0.99424   73.899
 4147.00    1.00403   1.00400   71.571
 4148.00    0.99235   1.00461   71.278
 4149.00    0.97983   1.00290   72.826
 4150.00    0.98571   1.00332   74.685
 4151.00    0.99842   1.00387   75.298
 4152.00    0.98472   1.00038   74.725
 4153.00    0.98061   0.99312   74.511
 4154.00    0.97142   0.98682   75.346
 4155.00    0.99457   0.98592   76.008
 4156.00    1.20501   0.99100   -1.000
 4157.00    1.25755   1.00025   -1.000
 4158.00    0.76898   1.01116   -1.000
 4159.00    0.76591   1.02014   -1.000
 4160.00    1.05229   1.02510   72.118
 4161.00    1.04351   1.02694   71.293
 4162.00    1.00446   1.02872   69.307
 4163.00    1.00932   1.03198   68.804
 4164.00    1.01435   1.03463   69.387
 4165.00    1.01336   1.03330   70.542
 4166.00    1.01183   1.02738   71.690
 4167.00    0.99886   1.02106   73.237
 4168.00    0.99512   1.01736   74.029
 4169.00    0.99790   1.01310   73.275
 4170.00    0.99420   1.00120   72.347
 4171.00    0.98193   0.97989   73.808
 4172.00    0.95812   0.95879   78.382
 4173.00    0.94530   0.95046   82.337
 4174.00    0.94243   0.95846   81.818
 4175.00    0.95545   0.97403   78.764
 4176.00    0.96805   0.98447   76.425
 4177.00    0.96683   0.98781   76.543
 4178.00    0.97353   0.99003   76.870
 4179.00    0.97708   0.99552   76.347
 4180.00    0.98139   1.00145   75.201
 4181.00    0.98490   1.00250   74.636
 4182.00    0.98204   1.00154   74.563
 4183.00    0.97328   1.00402   -1.000
 4184.00    0.97261   1.00779   -1.000
 4185.00    0.98452   1.00690   71.107
 4186.00    0.97287   0.99978   71.671
 4187.00    0.95570   0.99182   -1.000
 4188.00    0.96015   0.98968   -1.000
 4189.00    0.97474   0.99326   74.768
 4190.00    0.98513   0.99803   73.257
 4191.00    0.99189   1.00210   72.758
 4192.00    0.99326   1.00683   71.654
 4193.00    0.99770   1.01142   70.184
 4194.00    0.99714   1.01023   69.803
 4195.00    0.98663   0.99893   72.248
 4196.00    0.96854   0.98138   75.890
 4197.00    0.94564   0.96448   78.136
 4198.00    0.94062   0.95217   79.254
 4199.00    0.94491   0.94647   79.193
 4200.00    0.95232   0.94751   78.211
 4201.00    0.95248   0.95189   77.125
 4202.00    0.96076   0.95732   76.904
 4203.00    0.96281   0.96558   76.264
 4204.00    0.96632   0.97649   75.150
 4205.00    0.97207   0.98726   74.468
 4206.00    0.97655   0.99720   72.903
 4207.00    0.99011   1.00563   71.134
 4208.00    0.99526   1.01025   69.950
 4209.00    0.99314   1.01111   69.755
 4210.00    0.98706   1.01142   69.992
 4211.00    0.98876   1.01382   69.764
 4212.00    0.99286   1.01580   69.416
 4213.00    0.98951   1.01047   70.184
 4214.00    0.97426   0.99691   72.733
 4215.00    0.95350   0.98288   -1.000
 4216.00    0.94513   0.97788   -1.000
 4217.00    0.96713   0.98656   73.866
 4218.00    0.99034   1.00276   69.327
 4219.00    1.00285   1.01667   66.513
 4220.00    1.00816   1.02354   64.902
 4221.00    1.01156   1.02132   64.469
 4222.00    1.00324   1.00725   65.458
 4223.00    0.97656   0.97939   68.573
 4224.00    0.93200   0.94192   73.811
 4225.00    0.89523   0.90649   81.658
 4226.00    0.85184   0.88751   -1.000
 4227.00    0.84480   0.89759   -1.000
 4228.00    0.90206   0.93454   -1.000
 4229.00    0.96016   0.97744   77.373
 4230.00    0.98794   1.00380   70.247
 4231.00    0.99951   1.00800   67.252
 4232.00    0.99516   0.99880   67.188
 4233.00    0.97537   0.98611   68.834
 4234.00    0.96135   0.97691   70.464
 4235.00    0.95249   0.97384   71.277
 4236.00    0.94686   0.97476   72.938
 4237.00    0.94125   0.97905   -1.000
 4238.00    0.95172   0.98740   -1.000
 4239.00    0.97422   0.99769   71.437
 4240.00    0.98020   1.00788   70.389
 4241.00    0.98248   1.01654   69.083
 4242.00    0.97982   1.02279   -1.000
 4243.00    0.97830   1.02626   -1.000
 4244.00    0.99445   1.02597   66.599
 4245.00    0.99769   1.01904   65.539
 4246.00    0.97514   1.00384   66.709
 4247.00    0.95521   0.98601   69.825
 4248.00    0.93623   0.97374   -1.000
 4249.00    0.93235   0.97029   -1.000
 4250.00    0.93662   0.97429   -1.000
 4251.00    0.94710   0.98295   -1.000
 4252.00    0.96979   0.99101   71.718
 4253.00    0.97086   0.99334   70.109
 4254.00    0.95720   0.99191   70.869
 4255.00    0.95771   0.99373   72.394
 4256.00    0.98023   1.00021   70.995
 4257.00    0.99231   1.00284   68.503
 4258.00    0.97660   0.99424   68.564
 4259.00    0.95236   0.98018   71.547
 4260.00    0.93560   0.97365   -1.000
 4261.00    0.94538   0.98216   -1.000
 4262.00    0.97154   1.00217   72.880
 4263.00    0.98445   1.02277   68.434
 4264.00    0.99585   1.03469   65.517
 4265.00    1.00851   1.03608   64.282
 4266.00    1.00346   1.03094   64.383
 4267.00    0.98600   1.02144   65.673
 4268.00    0.97421   1.00691   67.885
 4269.00    0.96250   0.98681   70.028
 4270.00    0.93294   0.96333   73.068
 4271.00    0.90198   0.94306   -1.000
 4272.00    0.90082   0.93356   -1.000
 4273.00    0.90196   0.93759   -1.000
 4274.00    0.90652   0.95155   -1.000
 4275.00    0.92846   0.97128   -1.000
 4276.00    0.96097   0.99440   74.180
 4277.00    0.98038   1.01429   69.521
 4278.00    0.98271   1.02186   66.871
 4279.00    0.96389   1.01580   -1.000
 4280.00    0.94223   1.00392   -1.000
 4281.00    0.93893   0.99553   -1.000
 4282.00    0.95532   0.99311   -1.000
 4283.00    0.95880   0.99262   71.433
 4284.00    0.95251   0.99051   71.058
 4285.00    0.94162   0.98470   -1.000
 4286.00    0.92513   0.97368   -1.000
 4287.00    0.91934   0.95765   -1.000
 4288.00    0.90685   0.93787   77.455
 4289.00    0.87515   0.91972   -1.000
 4290.00    0.87187   0.91367   -1.000
 4291.00    0.89636   0.92359   83.393
 4292.00    0.91067   0.94036   78.813
 4293.00    0.92433   0.95034   74.314
 4294.00    0.92228   0.94939   73.391
 4295.00    0.92402   0.94323   74.250
 4296.00    0.91529   0.93337   75.579
 4297.00    0.88792   0.91595   77.661
 4298.00    0.85548   0.89062   -1.000
 4299.00    0.82094   0.86365   -1.000
 4300.00    0.80133   0.84455   -1.000
 4301.00    0.80854   0.83866   -1.000
 4302.00    0.81390   0.84396   -1.000
 4303.00    0.81418   0.85516   -1.000
 4304.00    0.82457   0.86619   -1.000
 4305.00    0.83021   0.86930   -1.000
 4306.00    0.82695   0.86140   -1.000
 4307.00    0.81177   0.84828   -1.000
 4308.00    0.78762   0.84025   -1.000
 4309.00    0.77627   0.84471   -1.000
 4310.00    0.79900   0.85980   -1.000
 4311.00    0.82282   0.87770   -1.000
 4312.00    0.84513   0.89318   -1.000
 4313.00    0.90114   0.90952   81.477
 4314.00    0.98705   0.93328   -1.000
 4315.00    0.92949   0.96643   -1.000
 4316.00    0.97463   1.00229   66.685
 4317.00    1.01907   1.02802   62.133
 4318.00    1.02524   1.03708   60.403
 4319.00    1.00814   1.03249   60.646
 4320.00    1.00003   1.01984   61.711
 4321.00    0.98613   1.00153   63.242
 4322.00    0.96127   0.97724   65.579
 4323.00    0.92859   0.94833   69.114
 4324.00    0.88304   0.92146   -1.000
 4325.00    0.86304   0.90903   -1.000
 4326.00    0.87227   0.91999   -1.000
 4327.00    0.92079   0.94756   76.118
 4328.00    0.95295   0.97406   68.318
 4329.00    0.96825   0.98677   64.093
 4330.00    0.97120   0.98685   63.261
 4331.00    0.96590   0.98316   63.508
 4332.00    0.95994   0.97970   62.998
 4333.00    0.94784   0.97341   61.923
 4334.00    0.94408   0.95870   61.394
 4335.00    0.92528   0.93027   61.469
 4336.00    0.88812   0.88383   63.021
 4337.00    0.82441   0.82012   67.566
 4338.00    0.76453   0.75183   74.244
 4339.00    0.70090   0.69858   81.019
 4340.00    0.65273   0.67755   86.969
 4341.00    0.66935   0.69906   87.427
 4342.00    0.74533   0.75519   80.208
 4343.00    0.80924   0.82044   72.667
 4344.00    0.85388   0.87395   68.677
 4345.00    0.89274   0.91209   66.658
 4346.00    0.90909   0.94053   64.962
 4347.00    0.92933   0.96258   63.961
 4348.00    0.94331   0.97489   63.250
 4349.00    0.95238   0.97265   62.370
 4350.00    0.93975   0.95735   63.095
 4351.00    0.91011   0.94085   66.986
 4352.00    0.89112   0.93664   -1.000
 4353.00    0.91722   0.95046   71.642
 4354.00    0.94585   0.97558   68.458
 4355.00    0.96579   0.99860   65.492
 4356.00    0.98018   1.01209   63.629
 4357.00    0.98885   1.01671   62.541
 4358.00    0.98207   1.01655   62.842
 4359.00    0.97788   1.01721   64.208
 4360.00    0.98311   1.02313   64.649
 4361.00    1.00253   1.03354   63.176
 4362.00    1.01248   1.04418   61.390
 4363.00    1.01885   1.05197   60.847
 4364.00    1.02442   1.05535   60.554
 4365.00    1.02366   1.05238   59.937
 4366.00    1.01164   1.04274   60.202
 4367.00    0.99743   1.03020   62.238
 4368.00    0.98795   1.02024   64.308
 4369.00    0.98652   1.01473   64.722
 4370.00    0.98842   1.01167   64.045
 4371.00    0.99082   1.00714   63.717
 4372.00    0.99249   0.99747   63.782
 4373.00    0.97662   0.98259   64.746
 4374.00    0.95968   0.96866   67.519
 4375.00    0.95616   0.96656   69.810
 4376.00    0.96327   0.98075   69.250
 4377.00    0.98723   1.00313   66.133
 4378.00    1.01345   1.02030   63.096
 4379.00    1.01969   1.02404   62.317
 4380.00    1.00678   1.01261   62.879
 4381.00    0.99323   0.98614   64.310
 4382.00    0.96333   0.94949   68.028
 4383.00    0.91303   0.91727   75.912
 4384.00    0.88673   0.90681   83.413
 4385.00    0.91264   0.92249   82.454
 4386.00    0.95952   0.95114   74.398
 4387.00    0.98074   0.97461   68.052
 4388.00    0.98657   0.98626   66.401
 4389.00    0.98834   0.98984   66.660
 4390.00    0.98701   0.99142   67.353
 4391.00    0.99520   0.99474   67.310
 4392.00    1.00244   0.99776   65.884
 4393.00    0.99568   0.99535   64.664
 4394.00    0.98518   0.98901   65.363
 4395.00    0.98001   0.98846   66.637
 4396.00    0.99207   0.99805   65.862
 4397.00    1.01833   1.00877   62.841
 4398.00    1.02218   1.01038   61.466
 4399.00    1.00255   1.00306   62.690
 4400.00    0.98455   0.99568   65.045
 4401.00    0.99166   0.99447   66.556
 4402.00    1.00576   0.99530   65.551
 4403.00    1.00188   0.99111   64.826
 4404.00    0.97899   0.98262   67.546
 4405.00    0.96369   0.97783   71.138
 4406.00    0.98306   0.98139   71.063
 4407.00    0.99472   0.98947   68.697
 4408.00    0.99436   0.99843   67.841
 4409.00    0.99693   1.01136   66.963
 4410.00    1.02182   1.02893   64.229
 4411.00    1.04172   1.04302   61.543
 4412.00    1.06268   1.04482   59.681
 4413.00    1.05000   1.03229   59.375
 4414.00    1.01178   1.01027   61.378
 4415.00    0.99472   0.98998   64.878
 4416.00    0.99078   0.98391   66.745
 4417.00    0.99796   0.99538   65.919
 4418.00    1.01560   1.01738   63.435
 4419.00    1.04061   1.03855   60.894
 4420.00    1.05400   1.04962   59.513
 4421.00    1.03533   1.04888   60.154
 4422.00    1.02282   1.04309   61.761
 4423.00    1.02982   1.03916   62.637
 4424.00    1.02805   1.03722   62.201
 4425.00    1.01396   1.03447   61.976
 4426.00    1.00661   1.03180   62.253
 4427.00    1.00469   1.03227   62.447
 4428.00    1.01470   1.03604   61.994
 4429.00    1.01725   1.04066   61.874
 4430.00    1.01328   1.04399   62.501
 4431.00    1.02447   1.04496   62.550
 4432.00    1.02046   1.04188   61.787
 4433.00    1.01807   1.03244   61.657
 4434.00    0.99582   1.01961   64.009
 4435.00    0.98093   1.01393   66.893
 4436.00    0.99004   1.02436   66.997
 4437.00    1.02749   1.04719   63.913
 4438.00    1.05711   1.06807   60.063
 4439.00    1.06009   1.07442   57.929
 4440.00    1.04952   1.06297   58.168
 4441.00    1.02829   1.04058   60.272
 4442.00    1.00887   1.01997   63.197
 4443.00    0.99716   1.01334   65.516
 4444.00    0.99898   1.02421   65.213
 4445.00    1.01972   1.04472   62.565
 4446.00    1.03492   1.06223   60.082
 4447.00    1.04157   1.07028   59.183
 4448.00    1.04204   1.07157   59.289
 4449.00    1.04400   1.07041   59.476
 4450.00    1.03107   1.06833   60.166
 4451.00    1.02467   1.06501   60.614
 4452.00    1.03579   1.05835   60.201
 4453.00    1.03281   1.04531   60.903
 4454.00    1.00861   1.02845   63.354
 4455.00    0.99334   1.01724   66.116
 4456.00    0.99748   1.01773   67.045
 4457.00    1.01242   1.02554   65.753
 4458.00    1.02040   1.03209   64.742
 4459.00    1.01343   1.03399   64.897
 4460.00    1.01395   1.03355   65.294
 4461.00    1.00468   1.03475   65.990
 4462.00    1.01645   1.04003   66.321
 4463.00    1.03466   1.04816   64.715
 4464.00    1.04265   1.05511   62.220
 4465.00    1.04283   1.05690   60.998
 4466.00    1.03437   1.05195   61.007
 4467.00    1.03612   1.04224   61.137
 4468.00    1.02813   1.03336   61.941
 4469.00    1.01630   1.03195   63.068
 4470.00    1.02207   1.04129   63.230
 4471.00    1.03791   1.05874   62.123
 4472.00    1.05723   1.07716   60.074
 4473.00    1.07911   1.09044   58.044
 4474.00    1.08131   1.09673   56.633
 4475.00    1.07669   1.09836   56.291
 4476.00    1.07637   1.09860   56.354
 4477.00    1.08526   1.09755   55.841
 4478.00    1.08112   1.09083   55.631
 4479.00    1.06222   1.07490   56.379
 4480.00    1.04658   1.05465   58.637
 4481.00    1.02355   1.04165   61.215
 4482.00    1.02408   1.04445   62.571
 4483.00    1.04235   1.06194   61.470
 4484.00    1.06777   1.08440   58.791
 4485.00    1.08696   1.10087   56.713
 4486.00    1.08466   1.10495   55.717
 4487.00    1.08541   1.09684   56.023
 4488.00    1.06631   1.08299   57.486
 4489.00    1.04892   1.07278   59.653
 4490.00    1.04818   1.07226   60.714
 4491.00    1.05636   1.07971   59.809
 4492.00    1.07500   1.08649   58.228
 4493.00    1.07218   1.08551   57.563
 4494.00    1.05713   1.07917   58.649
 4495.00    1.04858   1.07505   60.448
 4496.00    1.05025   1.07680   61.471
 4497.00    1.06913   1.08225   60.499
 4498.00    1.08231   1.08669   58.371
 4499.00    1.08580   1.08622   56.881
 4500.00    1.07749   1.08188   56.519
 4501.00    1.06376   1.08112   57.222
 4502.00    1.07621   1.08952   57.284
 4503.00    1.08573   1.10453   55.632
 4504.00    1.09760   1.11793   53.801
 4505.00    1.10528   1.12333   53.066
 4506.00    1.10740   1.12065   53.592
 4507.00    1.10248   1.11462   54.672
 4508.00    1.08714   1.11094   55.110
 4509.00    1.09439   1.11167   55.069
 4510.00    1.10048   1.11401   54.622
 4511.00    1.09783   1.11371   54.345
 4512.00    1.09104   1.10955   54.933
 4513.00    1.08123   1.10336   56.051
 4514.00    1.08502   1.09741   56.968
 4515.00    1.08756   1.09356   57.205
 4516.00    1.07593   1.09189   56.913
 4517.00    1.07020   1.09011   56.974
 4518.00    1.07553   1.08707   57.676
 4519.00    1.07954   1.08523   57.831
 4520.00    1.07782   1.08608   56.750
 4521.00    1.08228   1.08637   55.771
 4522.00    1.07307   1.08260   56.153
 4523.00    1.05964   1.07634   57.538
 4524.00    1.05843   1.07110   58.613
 4525.00    1.06528   1.06604   59.128
 4526.00    1.05294   1.05760   60.248
 4527.00    1.03326   1.04550   62.136
 4528.00    1.02814   1.03478   63.766
 4529.00    1.01933   1.03130   64.325
 4530.00    1.02332   1.03523   63.707
 4531.00    1.03694   1.04014   62.543
 4532.00    1.04626   1.03782   61.495
 4533.00    1.02745   1.02777   61.470
 4534.00    1.01626   1.01947   63.366
 4535.00    1.01403   1.02378   65.200
 4536.00    1.03051   1.04299   63.825
 4537.00    1.06222   1.06899   60.013
 4538.00    1.09044   1.08997   56.689
 4539.00    1.08980   1.09842   55.501
 4540.00    1.08253   1.09628   56.247
 4541.00    1.07751   1.09135   57.497
 4542.00    1.08190   1.08926   57.309
 4543.00    1.08104   1.08911   56.895
 4544.00    1.04522   1.08708   58.712
 4545.00    0.36795   1.08298   -2.000
 4546.00   -0.00499   1.07828   -2.000
 4547.00    0.06742   1.07031   -2.000
 4548.00    0.70643   1.05687   -1.000
 4549.00    0.48722   1.04428   -1.000
 4550.00    0.59293   1.04301   -1.000
 4551.00    1.10387   1.05298   -1.000
 4552.00    1.05584   1.06123   59.163
 4553.00    1.04995   1.05906   59.598
 4554.00    1.04030   1.05188   60.522
 4555.00    1.04001   1.05098   60.895
 4556.00    1.04996   1.06197   59.748
 4557.00    1.06970   1.07998   57.466
 4558.00    1.08504   1.09602   55.283
 4559.00    1.09210   1.10649   54.521
 4560.00    1.09366   1.11197   54.858
 4561.00    1.10157   1.11137   54.808
 4562.00    1.09650   1.10327   54.967
 4563.00    1.07346   1.09111   56.334
 4564.00    1.06469   1.08278   57.699
 4565.00    1.06902   1.08387   58.484
 4566.00    1.08023   1.09299   57.658
 4567.00    1.08771   1.10364   56.141
 4568.00    1.09574   1.10894   54.751
 4569.00    1.09830   1.10525   54.374
 4570.00    1.08088   1.09367   55.120
 4571.00    1.06296   1.08086   56.573
 4572.00    1.05930   1.07675   57.864
 4573.00    1.07691   1.08501   57.192
 4574.00    1.08833   1.09735   55.488
 4575.00    1.09567   1.10416   54.834
 4576.00    1.09990   1.10433   54.933
 4577.00    1.09189   1.10062   55.204
 4578.00    1.08621   1.09338   55.593
 4579.00    1.07188   1.08253   56.656
 4580.00    1.05986   1.07097   58.348
 4581.00    1.04969   1.06245   59.379
 4582.00    1.04755   1.05809   59.069
 4583.00    1.05467   1.05744   58.240
 4584.00    1.05312   1.06038   57.895
 4585.00    1.06822   1.06594   58.120
 4586.00    1.07117   1.07284   58.375
 4587.00    1.07724   1.08037   57.426
 4588.00    1.08724   1.08677   55.909
 4589.00    1.08286   1.08990   54.850
 4590.00    1.08786   1.08960   54.916
 4591.00    1.08042   1.08676   55.792
 4592.00    1.07512   1.08327   56.841
 4593.00    1.07045   1.08217   57.740
 4594.00    1.08176   1.08462   57.687
 4595.00    1.08706   1.08927   57.170
 4596.00    1.08371   1.09423   56.753
 4597.00    1.09191   1.09732   56.622
 4598.00    1.09753   1.09694   56.503
 4599.00    1.09476   1.09322   56.437
 4600.00    1.08354   1.08767   56.971
 4601.00    1.07359   1.08280   57.449
 4602.00    1.07031   1.08089   57.513
 4603.00    1.07589   1.08226   56.857
 4604.00    1.09066   1.08555   56.289
 4605.00    1.09520   1.08932   56.405
 4606.00    1.09345   1.09359   56.247
 4607.00    1.09903   1.09906   55.556
 4608.00    1.09985   1.10552   54.420
 4609.00    1.10620   1.11130   53.301
 4610.00    1.11108   1.11339   52.785
 4611.00    1.09984   1.11091   53.116
 4612.00    1.09438   1.10679   53.863
 4613.00    1.09919   1.10410   54.428
 4614.00    1.09984   1.10345   54.707
 4615.00    1.09658   1.10304   54.381
 4616.00    1.09159   1.10140   53.910
 4617.00    1.09848   1.09897   53.765
 4618.00    1.10107   1.09701   54.162
 4619.00    1.09680   1.09725   54.522
 4620.00    1.09639   1.10122   54.400
 4621.00    1.10317   1.10785   53.820
 4622.00    1.11314   1.11320   53.024
 4623.00    1.12203   1.11419   53.069
 4624.00    1.11312   1.11169   53.208
 4625.00    1.09656   1.10817   53.346
 4626.00    1.09853   1.10504   53.827
 4627.00    1.10410   1.10256   53.922
 4628.00    1.10551   1.10055   53.921
 4629.00    1.09967   1.10001   54.271
 4630.00    1.10035   1.10257   54.336
 4631.00    1.10507   1.10713   54.008
 4632.00    1.10765   1.10956   53.443
 4633.00    1.09825   1.10780   53.783
 4634.00    1.09979   1.10432   54.584
 4635.00    1.10708   1.10203   55.114
 4636.00    1.10207   1.10060   55.073
 4637.00    1.10210   1.09888   55.577
 4638.00    1.09878   1.09784   56.285
 4639.00    1.10427   1.09960   56.457
 4640.00    1.10439   1.10498   56.279
 4641.00    1.11440   1.11209   55.234
 4642.00    1.11681   1.11780   53.910
 4643.00    1.11596   1.11906   53.292
 4644.00    1.10833   1.11434   53.632
 4645.00    1.09547   1.10448   54.724
 4646.00    1.08827   1.09276   56.299
 4647.00    1.08114   1.08525   57.738
 4648.00    1.08639   1.08635   57.792
 4649.00    1.09906   1.09427   56.668
 4650.00    1.09986   1.10353   55.374
 4651.00    1.09442   1.10937   54.705
 4652.00    1.09619   1.10983   54.644
 4653.00    1.08937   1.10569   54.596
 4654.00    1.08376   1.09948   55.346
 4655.00    1.08091   1.09473   56.615
 4656.00    1.08486   1.09471   57.125
 4657.00    1.08598   1.10186   56.450
 4658.00    1.10373   1.11576   54.545
 4659.00    1.12968   1.13041   52.509
 4660.00    1.13772   1.13807   51.477
 4661.00    1.13384   1.13636   51.546
 4662.00    1.13149   1.12880   52.282
 4663.00    1.11736   1.11974   53.585
 4664.00    1.11574   1.11015   54.545
 4665.00    1.10943   1.09812   54.683
 4666.00    1.09629   1.08273   55.753
 4667.00    1.07355   1.06826   58.244
 4668.00    1.05281   1.06247   60.461
 4669.00    1.06515   1.06830   60.214
 4670.00    1.09185   1.08118   58.201
 4671.00    1.10165   1.09420   55.799
 4672.00    1.11193   1.10300   54.439
 4673.00    1.10873   1.10768   54.212
 4674.00    1.10361   1.11118   54.265
 4675.00    1.11194   1.11522   54.146
 4676.00    1.12070   1.11773   53.393
 4677.00    1.11750   1.11495   52.671
 4678.00    1.10800   1.10682   53.073
 4679.00    1.09697   1.09680   54.274
 4680.00    1.09172   1.08837   55.325
 4681.00    1.08896   1.08408   56.198
 4682.00    1.09364   1.08517   56.615
 4683.00    1.10997   1.09039   55.776
 4684.00    1.11671   1.09641   54.380
 4685.00    1.11694   1.10029   53.782
 4686.00    1.11651   1.10158   54.004
 4687.00    1.11484   1.10162   54.037
 4688.00    1.11361   1.10163   54.339
 4689.00    1.11448   1.10157   54.323
 4690.00    1.11357   1.10065   54.361
 4691.00    1.10740   1.09959   54.755
 4692.00    1.11082   1.10062   54.788
 4693.00    1.11824   1.10393   54.079
 4694.00    1.12913   1.10746   53.231
 4695.00    1.12893   1.10987   52.061
 4696.00    1.12229   1.10960   51.500
 4697.00    1.12018   1.10447   51.905
 4698.00    1.11724   1.09546   53.488
 4699.00    1.10408   1.08644   55.032
 4700.00    1.10341   1.07940   55.525
 4701.00    1.09861   1.07323   55.083
 4702.00    1.08789   1.06738   55.595
 4703.00    1.07087   1.06480   56.562
 4704.00    1.08009   1.06826   56.703
 4705.00    1.09410   1.07432   55.566
 4706.00    1.10092   1.07622   54.885
 4707.00    1.08756   1.07213   55.773
 4708.00    1.07850   1.06721   56.870
 4709.00    1.07755   1.06777   57.317
 4710.00    1.09153   1.07484   56.857
 4711.00    1.11955   1.08424   55.109
 4712.00    1.12118   1.09021   53.681
 4713.00    1.11888   1.08981   53.285
 4714.00    1.11486   1.08636   53.894
 4715.00    1.10855   1.08625   54.871
 4716.00    1.11491   1.09205   54.725
 4717.00    1.12939   1.10034   53.577
 4718.00    1.12926   1.10686   52.603
 4719.00    1.12480   1.11050   52.330
 4720.00    1.13110   1.11172   52.151
 4721.00    1.12227   1.11104   52.019
 4722.00    1.11401   1.11012   52.497
 4723.00    1.12135   1.11122   52.813
 4724.00    1.13251   1.11401   52.443
 4725.00    1.12640   1.11481   51.906
 4726.00    1.11417   1.11030   52.112
 4727.00    1.10406   1.10068   53.505
 4728.00    1.09561   1.09030   55.532
 4729.00    1.09657   1.08361   56.616
 4730.00    1.09071   1.08108   56.294
 4731.00    1.09377   1.08198   55.708
 4732.00    1.10247   1.08630   55.262
 4733.00    1.10625   1.09183   54.594
 4734.00    1.10279   1.09496   54.144
 4735.00    1.10477   1.09453   53.846
 4736.00    1.10608   1.09235   53.608
 4737.00    1.09840   1.09117   54.204
 4738.00    1.10496   1.09244   54.185
 4739.00    1.11860   1.09505   53.488
 4740.00    1.11748   1.09688   53.577
 4741.00    1.10613   1.09798   53.889
 4742.00    1.10363   1.10015   53.908
 4743.00    1.11173   1.10375   53.435
 4744.00    1.11780   1.10757   52.890
 4745.00    1.11711   1.11122   53.035
 4746.00    1.12073   1.11521   53.046
 4747.00    1.12791   1.11991   52.612
 4748.00    1.12381   1.12444   52.100
 4749.00    1.12362   1.12748   52.029
 4750.00    1.12039   1.12886   52.117
 4751.00    1.11562   1.12848   52.171
 4752.00    1.11353   1.12556   52.588
 4753.00    1.10652   1.12047   53.188
 4754.00    1.09813   1.11532   53.619
 4755.00    1.09293   1.11243   53.951
 4756.00    1.09667   1.11264   53.848
 4757.00    1.10013   1.11490   54.091
 4758.00    1.10633   1.11743   54.482
 4759.00    1.10150   1.11869   54.486
 4760.00    1.11190   1.11658   54.026
 4761.00    1.10062   1.10922   54.012
 4762.00    1.09280   1.09771   54.948
 4763.00    1.07671   1.08688   56.315
 4764.00    1.07385   1.08143   56.955
 4765.00    1.08041   1.08231   56.990
 4766.00    1.09085   1.08781   56.843
 4767.00    1.10083   1.09645   56.400
 4768.00    1.10410   1.10691   55.564
 4769.00    1.11069   1.11619   54.303
 4770.00    1.11154   1.12050   53.633
 4771.00    1.11173   1.11937   53.795
 4772.00    1.10291   1.11667   54.274
 4773.00    1.10078   1.11721   54.684
 4774.00    1.11574   1.12174   53.951
 4775.00    1.12600   1.12654   52.814
 4776.00    1.12449   1.12860   52.525
 4777.00    1.12692   1.12761   52.596
 4778.00    1.11366   1.12376   52.769
 4779.00    1.10593   1.11816   53.140
 4780.00    1.10541   1.11391   53.738
 4781.00    1.10593   1.11274   54.026
 4782.00    1.10001   1.11234   54.159
 4783.00    1.10163   1.11047   54.443
 4784.00    1.10119   1.10774   54.865
 4785.00    1.10340   1.10483   54.827
 4786.00    1.10471   1.10168   55.048
 4787.00    1.08785   1.09942   55.605
 4788.00    1.08254   1.09943   55.888
 4789.00    1.09569   1.10179   55.798
 4790.00    1.09895   1.10645   55.506
 4791.00    1.10736   1.11341   55.146
 4792.00    1.11614   1.12166   54.536
 4793.00    1.11846   1.13014   53.602
 4794.00    1.12346   1.13750   52.404
 4795.00    1.12259   1.14112   51.563
 4796.00    1.12265   1.13910   51.455
 4797.00    1.12546   1.13252   52.044
 4798.00    1.11280   1.12467   53.124
 4799.00    1.09626   1.11975   54.093
 4800.00    1.10669   1.12068   54.650
 4801.00    1.10832   1.12654   54.070
 4802.00    1.11633   1.13252   52.959
 4803.00    1.11787   1.13293   52.265
 4804.00    1.11266   1.12697   52.425
 4805.00    1.11519   1.11967   53.162
 4806.00    1.11314   1.11591   53.829
 4807.00    1.11013   1.11639   54.278
 4808.00    1.11264   1.11928   54.229
 4809.00    1.11012   1.12248   54.081
 4810.00    1.11442   1.12473   53.817
 4811.00    1.10842   1.12618   53.320
 4812.00    1.11898   1.12802   52.951
 4813.00    1.12597   1.13116   52.698
 4814.00    1.12381   1.13503   52.654
 4815.00    1.12250   1.13846   52.517
 4816.00    1.12314   1.14126   52.317
 4817.00    1.12243   1.14332   51.979
 4818.00    1.12339   1.14378   51.663
 4819.00    1.13036   1.14251   51.470
 4820.00    1.13384   1.13977   51.463
 4821.00    1.13060   1.13437   51.490
 4822.00    1.11459   1.12478   52.018
 4823.00    1.09832   1.11316   53.430
 4824.00    1.10005   1.10576   54.366
 4825.00    1.10341   1.10667   54.155
 4826.00    1.10839   1.11282   53.156
 4827.00    1.11693   1.11770   52.397
 4828.00    1.11682   1.11801   52.693
 4829.00    1.11867   1.11536   53.325
 4830.00    1.11123   1.11223   53.621
 4831.00    1.10198   1.10902   53.615
 4832.00    1.11215   1.10653   54.122
 4833.00    1.11850   1.10634   54.140
 4834.00    1.11855   1.10836   53.227
 4835.00    1.11703   1.11052   52.556
 4836.00    1.10886   1.11111   52.403
 4837.00    1.11046   1.10998   52.512
 4838.00    1.10521   1.10717   52.795
 4839.00    1.09071   1.10275   53.556
 4840.00    1.09381   1.09837   54.485
 4841.00    1.09826   1.09591   54.458
 4842.00    1.09849   1.09511   54.328
 4843.00    1.09810   1.09482   54.040
 4844.00    1.09784   1.09531   53.623
 4845.00    1.10395   1.09724   53.064
 4846.00    1.10400   1.09819   52.240
 4847.00    1.09642   1.09459   52.064
 4848.00    1.07835   1.08781   53.183
 4849.00    1.06803   1.08307   53.922
 4850.00    1.08012   1.08171   53.839
 4851.00    1.07770   1.08027   53.073
 4852.00    1.07233   1.07496   53.003
 4853.00    1.06237   1.06328   53.335
 4854.00    1.04543   1.04476   53.849
 4855.00    1.02741   1.02347   55.522
 4856.00    1.00896   1.00458   57.015
 4857.00    0.99764   0.98554   56.779
 4858.00    0.97367   0.95337   56.273
 4859.00    0.90820   0.89510   58.069
 4860.00    0.81791   0.82010   63.352
 4861.00    0.74387   0.76420   70.770
 4862.00    0.75950   0.76347   73.579
 4863.00    0.84685   0.81684   68.630
 4864.00    0.92711   0.88872   62.527
 4865.00    0.97273   0.94768   58.988
 4866.00    0.99437   0.98746   57.001
 4867.00    1.01696   1.01398   55.861
 4868.00    1.03298   1.03091   55.394
 4869.00    1.03872   1.03702   55.199
 4870.00    1.03616   1.03171   55.759
 4871.00    1.01795   1.02143   57.385
 4872.00    1.01859   1.01834   58.700
 4873.00    1.03048   1.02883   58.059
 4874.00    1.04837   1.04674   56.373
 4875.00    1.06619   1.06138   55.448
 4876.00    1.06302   1.06867   55.048
 4877.00    1.05274   1.07259   54.757
 4878.00    1.06632   1.07892   54.554
 4879.00    1.07910   1.08888   53.737
 4880.00    1.08482   1.09811   53.217
 4881.00    1.07664   1.10086   53.755
 4882.00    1.07028   1.09708   54.644
 4883.00    1.07314   1.09170   54.923
 4884.00    1.07690   1.08826   54.732
 4885.00    1.07105   1.08657   55.072
 4886.00    1.07186   1.08561   55.931
 4887.00    1.07586   1.08468   56.181
 4888.00    1.07823   1.08169   55.862
 4889.00    1.07346   1.07404   55.831
 4890.00    1.04705   1.06333   56.716
 4891.00    1.04128   1.05844   57.937
 4892.00    1.06718   1.06866   57.404
 4893.00    1.09347   1.09243   55.005
 4894.00    1.11430   1.11821   52.460
 4895.00    1.12324   1.13666   50.970
 4896.00    1.12539   1.14595   50.061
 4897.00    1.12570   1.14782   49.861
 4898.00    1.12158   1.14377   50.018
 4899.00    1.11015   1.13600   51.153
 4900.00    1.10390   1.12857   52.349
 4901.00    1.10602   1.12428   52.870
 4902.00    1.10203   1.12146   52.589
 4903.00    1.10052   1.11854   52.698
 4904.00    1.10340   1.11907   53.333
 4905.00    1.11080   1.12635   52.682
 4906.00    1.11679   1.13537   51.551
 4907.00    1.12519   1.13813   51.209
 4908.00    1.12474   1.13242   51.744
 4909.00    1.09322   1.12166   53.040
 4910.00    1.08268   1.11112   54.563
 4911.00    1.08963   1.10633   55.174
 4912.00    1.10235   1.10954   54.383
 4913.00    1.10833   1.11778   53.393
 4914.00    1.11521   1.12662   52.672
 4915.00    1.12736   1.13233   51.994
 4916.00    1.12827   1.13029   51.565
 4917.00    1.11010   1.11592   51.887
 4918.00    1.08475   1.09030   53.803
 4919.00    1.05577   1.06193   56.799
 4920.00    1.04545   1.04296   59.435
 4921.00    1.04997   1.04061   59.957
 4922.00    1.06907   1.05065   57.903
 4923.00    1.07927   1.06250   55.828
 4924.00    1.08084   1.07243   55.067
 4925.00    1.07752   1.08474   55.021
 4926.00    1.08905   1.10117   54.273
 4927.00    1.11569   1.11770   52.835
 4928.00    1.12278   1.13043   51.921
 4929.00    1.12883   1.13850   51.452
 4930.00    1.12843   1.14134   51.106
 4931.00    1.12391   1.13685   50.822
 4932.00    1.11915   1.12358   51.380
 4933.00    1.10556   1.10572   52.832
 4934.00    1.09026   1.09350   54.731
 4935.00    1.09232   1.09295   54.770
 4936.00    1.10523   1.09726   53.769
 4937.00    1.09968   1.09516   53.813
 4938.00    1.07794   1.08647   55.464
 4939.00    1.07376   1.08191   56.938
 4940.00    1.08829   1.08975   56.332
 4941.00    1.11085   1.10785   54.360
 4942.00    1.12873   1.12675   52.638
 4943.00    1.13151   1.13883   51.704
 4944.00    1.13250   1.14240   51.261
 4945.00    1.12034   1.14041   51.324
 4946.00    1.12232   1.13783   51.697
 4947.00    1.12903   1.13883   51.785
 4948.00    1.12937   1.14367   51.293
 4949.00    1.13641   1.14883   50.689
 4950.00    1.13078   1.15102   50.551
 4951.00    1.13607   1.14994   50.347
 4952.00    1.13539   1.14714   50.630
 4953.00    1.12546   1.14337   50.987
 4954.00    1.13111   1.13626   51.589
 4955.00    1.11612   1.12024   52.252
 4956.00    1.08980   1.09337   53.710
 4957.00    1.05465   1.06733   56.531
 4958.00    1.04926   1.06062   58.712
 4959.00    1.08606   1.07799   57.361
 4960.00    1.13129   1.10579   54.027
 4961.00    1.13518   1.12782   52.240
 4962.00    1.14506   1.13824   51.896
 4963.00    1.13103   1.13911   52.164
 4964.00    1.12840   1.13383   52.592
 4965.00    1.11827   1.12504   53.234
 4966.00    1.11237   1.11667   54.377
 4967.00    1.10784   1.11193   55.053
 4968.00    1.10680   1.11106   55.040
 4969.00    1.11196   1.11323   54.868
 4970.00    1.10749   1.11815   54.449
 4971.00    1.11299   1.12462   53.860
 4972.00    1.12836   1.13104   53.281
 4973.00    1.13272   1.13629   52.644
 4974.00    1.13149   1.13914   52.157
 4975.00    1.13130   1.13884   51.965
 4976.00    1.12812   1.13534   52.351
 4977.00    1.13109   1.12923   52.913
 4978.00    1.11408   1.12243   53.641
 4979.00    1.10751   1.11528   54.519
 4980.00    1.09702   1.10470   55.186
 4981.00    1.07386   1.08839   55.991
 4982.00    1.06403   1.06968   57.877
 4983.00    1.05707   1.05698   59.724
 4984.00    1.05462   1.05690   59.644
 4985.00    1.07129   1.06896   58.475
 4986.00    1.09309   1.08712   56.811
 4987.00    1.10078   1.10467   55.006
 4988.00    1.10671   1.11522   53.678
 4989.00    1.11027   1.11562   53.780
 4990.00    1.09905   1.10886   54.596
 4991.00    1.09706   1.10231   55.142
 4992.00    1.10177   1.10103   55.141
 4993.00    1.09545   1.10431   54.635
 4994.00    1.10530   1.10946   54.416
 4995.00    1.11103   1.11528   54.393
 4996.00    1.11071   1.11999   54.104
 4997.00    1.11103   1.11957   53.844
 4998.00    1.11419   1.11012   54.197
 4999.00    1.09941   1.09253   54.943
 5000.00    1.08320   1.07743   56.063
 5001.00    1.08673   1.07397   56.743
 5002.00    1.08912   1.07971   56.754
 5003.00    1.09361   1.08515   56.199
 5004.00    1.09792   1.08337   55.850
 5005.00    1.08137   1.07378   56.699
 5006.00    1.06403   1.06401   58.156
 5007.00    1.06288   1.06434   58.422
 5008.00    1.07977   1.07588   56.931
 5009.00    1.09571   1.08933   55.196
 5010.00    1.10281   1.09405   54.658
 5011.00    1.09913   1.08659   55.428
 5012.00    1.06701   1.07164   57.134
 5013.00    1.05446   1.05783   59.290
 5014.00    1.05250   1.05184   60.626
 5015.00    1.06758   1.05397   60.268
 5016.00    1.07580   1.05846   58.900
 5017.00    1.07571   1.05939   57.680
 5018.00    1.07046   1.05850   57.470
 5019.00    1.07053   1.06293   57.483
 5020.00    1.07801   1.07332   56.808
 5021.00    1.08850   1.08303   56.357
 5022.00    1.08792   1.08834   56.629
 5023.00    1.08760   1.09269   56.746
 5024.00    1.09598   1.09927   56.403
 5025.00    1.10326   1.10564   55.798
 5026.00    1.09967   1.10756   55.437
 5027.00    1.09028   1.10574   55.723
 5028.00    1.09379   1.10442   55.983
 5029.00    1.10655   1.10606   55.440
 5030.00    1.11031   1.11037   54.378
 5031.00    1.11243   1.11683   53.610
 5032.00    1.11655   1.12381   52.736
 5033.00    1.11817   1.12691   52.142
 5034.00    1.11527   1.12178   52.264
 5035.00    1.09549   1.10991   54.004
 5036.00    1.07451   1.09831   56.162
 5037.00    1.07613   1.09139   57.045
 5038.00    1.07868   1.08466   57.225
 5039.00    1.07275   1.07106   57.964
 5040.00    1.04330   1.05217   60.306
 5041.00    1.03119   1.04068   62.756
 5042.00    1.04289   1.04756   62.678
 5043.00    1.07385   1.07080   59.538
 5044.00    1.09452   1.09833   55.830
 5045.00    1.14588   1.11983   53.601
 5046.00    0.98874   1.13089   -1.000
 5047.00    0.27065   1.13065   -1.000
 5048.00    0.16669   1.12006   -1.000
 5049.00    0.14769   1.10385   -1.000
 5050.00    1.06447   1.08896  103.136
 5051.00    1.10576   1.08172   55.247
 5052.00    1.08067   1.08579   56.304
 5053.00    1.10685   1.10009   55.000
 5054.00    1.12884   1.11706   53.605
 5055.00    1.12729   1.12923   52.645
 5056.00    1.12958   1.13528   52.161
 5057.00    1.13171   1.13800   52.006
 5058.00    1.13621   1.13964   52.111
 5059.00    1.12515   1.14107   52.207
 5060.00    1.12001   1.14242   52.181
 5061.00    1.13148   1.14277   51.813
 5062.00    1.13145   1.13936   51.859
 5063.00    1.11844   1.12951   52.588
 5064.00    1.10149   1.11537   54.160
 5065.00    1.08679   1.10379   56.107
 5066.00    1.09644   1.09960   56.699
 5067.00    1.10584   1.10084   55.959
 5068.00    1.11133   1.10309   55.105
 5069.00    1.11843   1.10500   54.956
 5070.00    1.12318   1.10700   54.690
 5071.00    1.11818   1.10764   54.325
 5072.00    1.11357   1.10572   54.799
 5073.00    1.11144   1.10333   55.232
 5074.00    1.11411   1.10313   54.506
 5075.00    1.11654   1.10478   54.090
 5076.00    1.11146   1.10492   54.032
 5077.00    1.11367   1.09930   53.990
 5078.00    1.10459   1.08634   54.540
 5079.00    1.07741   1.07133   56.508
 5080.00    1.05963   1.06344   59.243
 5081.00    1.07062   1.06558   59.840
 5082.00    1.08596   1.07287   58.501
 5083.00    1.08994   1.08105   57.251
 5084.00    1.10235   1.09054   56.500
 5085.00    1.11205   1.10139   55.418
 5086.00    1.11678   1.11069   54.472
 5087.00    1.12386   1.11617   54.105
 5088.00    1.12748   1.11887   54.043
 5089.00    1.12571   1.12126   53.762
 5090.00    1.13040   1.12427   53.368
 5091.00    1.12947   1.12782   53.077
 5092.00    1.12551   1.13193   52.803
 5093.00    1.14484   1.13565   52.179
 5094.00    1.16858   1.13617   51.715
 5095.00    1.13823   1.13056   52.227
 5096.00    1.12678   1.11883   53.346
 5097.00    1.11560   1.10433   54.501
 5098.00    1.09990   1.09204   55.830
 5099.00    1.09621   1.08733   56.994
 5100.00    1.09928   1.09251   57.136
 5101.00    1.11041   1.10386   55.669
 5102.00    1.12707   1.11403   54.044
 5103.00    1.12746   1.11845   53.613
 5104.00    1.12210   1.11693   53.960
 5105.00    1.12159   1.11071   54.689
 5106.00    1.11071   1.10051   55.380
 5107.00    1.09307   1.08956   56.057
 5108.00    1.08829   1.08268   56.763
 5109.00    1.08717   1.08223   56.644
 5110.00    1.09964   1.08745   56.270
 5111.00    1.11730   1.09728   55.865
 5112.00    1.12533   1.10920   55.044
 5113.00    1.12807   1.11972   54.375
 5114.00    1.13384   1.12695   53.712
 5115.00    1.13444   1.13191   53.234
 5116.00    1.13496   1.13610   52.956
 5117.00    1.14083   1.13936   52.385
 5118.00    1.14587   1.14012   51.952
 5119.00    1.14565   1.13716   52.129
 5120.00    1.13464   1.13046   52.834
 5121.00    1.12322   1.12076   53.634
 5122.00    1.11699   1.10905   54.523
 5123.00    1.10077   1.09708   55.951
 5124.00    1.08464   1.08831   57.653
 5125.00    1.09008   1.08503   58.002
 5126.00    1.09436   1.08539   57.451
 5127.00    1.09856   1.08575   57.180
 5128.00    1.10432   1.08533   56.836
 5129.00    1.10771   1.08617   56.935
 5130.00    1.10740   1.09025   56.878
 5131.00    1.10822   1.09703   56.108
 5132.00    1.11092   1.10413   55.141
 5133.00    1.11485   1.10978   54.712
 5134.00    1.11660   1.11353   54.187
 5135.00    1.12616   1.11460   53.711
 5136.00    1.11934   1.11125   53.585
 5137.00    1.10765   1.10282   54.596
 5138.00    1.09888   1.09197   55.942
 5139.00    1.07951   1.08397   56.817
 5140.00    1.08381   1.08207   56.864
 5141.00    1.09404   1.08415   56.330
 5142.00    1.07978   1.08658   56.786
 5143.00    1.08781   1.08946   57.734
 5144.00    1.09932   1.09419   57.349
 5145.00    1.10282   1.09853   56.357
 5146.00    1.10133   1.09940   56.191
 5147.00    1.10403   1.09795   56.746
 5148.00    1.10323   1.09739   56.871
 5149.00    1.11047   1.09706   56.139
 5150.00    1.10864   1.09370   55.839
 5151.00    1.09670   1.08724   56.570
 5152.00    1.09225   1.08179   57.619
 5153.00    1.09737   1.08072   57.973
 5154.00    1.10216   1.08498   57.654
 5155.00    1.11410   1.09449   56.521
 5156.00    1.12346   1.10743   55.070
 5157.00    1.13463   1.11974   53.670
 5158.00    1.14032   1.12803   52.678
 5159.00    1.13871   1.13169   52.311
 5160.00    1.14672   1.13143   52.317
 5161.00    1.14632   1.12790   52.499
 5162.00    1.13502   1.12159   52.806
 5163.00    1.12973   1.11167   53.413
 5164.00    1.11945   1.09339   54.252
 5165.00    1.08507   1.05983   56.373
 5166.00    1.02588   1.01224   61.142
 5167.00    0.97276   0.96791   67.607
 5168.00    0.96717   0.94866   72.070
 5169.00    0.99943   0.95793   -1.000
 5170.00    1.02278   0.97360   -1.000
 5171.00    1.00983   0.97351   65.462
 5172.00    0.97510   0.96241   69.884
 5173.00    0.96563   0.96569   74.678
 5174.00    1.01344   0.99702   71.329
 5175.00    1.09019   1.04279   -1.000
 5176.00    1.12891   1.08067   -1.000
 5177.00    1.14076   1.10155   56.145
 5178.00    1.13942   1.10914   55.552
 5179.00    1.13316   1.10712   55.456
 5180.00    1.12683   1.09298   56.030
 5181.00    1.09612   1.06175   58.047
 5182.00    1.03416   1.01693   62.339
 5183.00    0.98120   0.97700   69.722
 5184.00    0.96262   0.96601   75.103
 5185.00    1.01426   0.99061   71.311
 5186.00    1.07762   1.03195   -1.000
 5187.00    1.10581   1.06501   57.762
 5188.00    1.10815   1.08094   56.050
 5189.00    1.11084   1.08530   55.600
 5190.00    1.10996   1.08286   55.377
 5191.00    1.09048   1.07438   56.004
 5192.00    1.07214   1.06434   57.834
 5193.00    1.06787   1.06011   59.426
 5194.00    1.08467   1.06356   58.901
 5195.00    1.09473   1.07083   57.866
 5196.00    1.10003   1.07905   57.016
 5197.00    1.11529   1.08824   56.184
 5198.00    1.12155   1.09848   55.040
 5199.00    1.12188   1.10776   54.111
 5200.00    1.12162   1.11305   53.685
 5201.00    1.12339   1.11164   53.646
 5202.00    1.13234   1.10230   54.097
 5203.00    1.11804   1.08546   55.101
 5204.00    1.08988   1.06466   56.373
 5205.00    1.07217   1.04635   58.170
 5206.00    1.06525   1.03589   59.959
 5207.00    1.07873   1.03302   -1.000
 5208.00    1.08007   1.03456   -1.000
 5209.00    1.07305   1.04112   60.815
 5210.00    1.08745   1.05605   59.882
 5211.00    1.11501   1.07810   57.889
 5212.00    1.13784   1.10016   55.542
 5213.00    1.14030   1.11385   53.370
 5214.00    1.14462   1.11479   52.298
 5215.00    1.12322   1.10607   52.939
 5216.00    1.10821   1.09731   54.219
 5217.00    1.11212   1.09742   54.857
 5218.00    1.12634   1.10772   54.363
 5219.00    1.13979   1.12226   53.160
 5220.00    1.14670   1.13437   52.367
 5221.00    1.16037   1.14066   51.978
 5222.00    1.15477   1.13956   51.776
 5223.00    1.14624   1.12927   52.479
 5224.00    1.12944   1.10803   54.119
 5225.00    1.09906   1.07800   56.379
 5226.00    1.06637   1.05019   59.038
 5227.00    1.05786   1.04015   60.636
 5228.00    1.08077   1.05383   59.249
 5229.00    1.10788   1.08028   55.873
 5230.00    1.13571   1.10164   53.619
 5231.00    1.13767   1.10799   52.706
 5232.00    1.12435   1.10145   52.653
 5233.00    1.10874   1.09183   53.763
 5234.00    1.11152   1.08974   54.717
 5235.00    1.12306   1.09907   54.559
 5236.00    1.14233   1.11508   53.268
 5237.00    1.15128   1.12983   51.993
 5238.00    1.14310   1.13859   51.431
 5239.00    1.15423   1.14158   51.403
 5240.00    1.16426   1.14151   51.574
 5241.00    1.15530   1.14057   51.473
 5242.00    1.15969   1.13993   51.160
 5243.00    1.16409   1.14043   51.253
 5244.00    1.15544   1.14130   51.140
 5245.00    1.14533   1.13911   51.060
 5246.00    1.13839   1.13133   52.127
 5247.00    1.13035   1.12047   53.786
 5248.00    1.12689   1.11156   55.023
 5249.00    1.12761   1.10647   55.125
 5250.00    1.11626   1.10444   55.227
 5251.00    1.11130   1.10539   55.592
 5252.00    1.12413   1.10881   55.307
 5253.00    1.13454   1.11207   54.521
 5254.00    1.12920   1.11381   53.989
 5255.00    1.12766   1.11681   54.016
 5256.00    1.13611   1.12465   53.614
 5257.00    1.15585   1.13600   52.329
 5258.00    1.16723   1.14480   50.908
 5259.00    1.16462   1.14514   50.490
 5260.00    1.14936   1.13448   50.993
 5261.00    1.12489   1.11414   52.426
 5262.00    1.09790   1.08903   54.681
 5263.00    1.07653   1.06497   57.299
 5264.00    1.07409   1.04685   59.258
 5265.00    1.06412   1.03795   60.455
 5266.00    1.06163   1.03791   60.586
 5267.00    1.07401   1.03956   59.491
 5268.00    1.08438   1.03359   -1.000
 5269.00    1.04955   1.02080   59.781
 5270.00    1.03586   1.01553   62.236
 5271.00    1.06590   1.02948   61.098
 5272.00    1.10043   1.05582   -1.000
 5273.00    1.11747   1.07805   54.924
 5274.00    1.11446   1.08885   54.419
 5275.00    1.11636   1.09396   54.464
 5276.00    1.12171   1.10234   54.331
 5277.00    1.13530   1.11677   53.257
 5278.00    1.15865   1.13150   51.408
 5279.00    1.16383   1.13777   50.476
 5280.00    1.15231   1.13227   50.820
 5281.00    1.13852   1.11915   52.076
 5282.00    1.12364   1.10557   53.437
 5283.00    1.11015   1.09830   54.402
 5284.00    1.11982   1.10215   54.649
 5285.00    1.13370   1.11708   53.502
 5286.00    1.15389   1.13612   51.847
 5287.00    1.17489   1.15058   50.212
 5288.00    1.16915   1.15754   49.869
 5289.00    1.16327   1.15990   50.152
 5290.00    1.16696   1.16042   50.136
 5291.00    1.17318   1.15949   49.833
 5292.00    1.17855   1.15750   49.733
 5293.00    1.16905   1.15481   50.038
 5294.00    1.16354   1.14989   50.517
 5295.00    1.15557   1.13986   51.195
 5296.00    1.13628   1.12434   52.609
 5297.00    1.11692   1.10837   54.654
 5298.00    1.10594   1.09975   56.103
 5299.00    1.11751   1.10175   55.701
 5300.00    1.13458   1.10999   54.255
 5301.00    1.13713   1.11832   53.257
 5302.00    1.14030   1.12566   52.936
 5303.00    1.14817   1.13439   52.274
 5304.00    1.16039   1.14394   50.841
 5305.00    1.16405   1.15019   49.919
 5306.00    1.15684   1.15108   49.812
 5307.00    1.14698   1.14932   50.316
 5308.00    1.15397   1.14938   50.752
 5309.00    1.16607   1.15289   50.399
 5310.00    1.16757   1.15751   49.864
 5311.00    1.17509   1.15989   49.551
 5312.00    1.17649   1.15866   49.610
 5313.00    1.16837   1.15409   49.897
 5314.00    1.16008   1.14653   50.110
 5315.00    1.14956   1.13687   50.479
 5316.00    1.14405   1.12855   50.983
 5317.00    1.13647   1.12654   51.434
 5318.00    1.15333   1.13189   51.439
 5319.00    1.16325   1.13980   51.046
 5320.00    1.16094   1.14409   50.834
 5321.00    1.15797   1.14175   51.031
 5322.00    1.14870   1.13304   51.396
 5323.00    1.14201   1.12098   52.008
 5324.00    1.12901   1.10978   52.930
 5325.00    1.12600   1.09964   53.409
 5326.00    1.12261   1.08472   53.374
 5327.00    1.08796   1.06273   54.885
 5328.00    1.05757   1.04479   58.493
 5329.00    1.06803   1.04671   60.317
 5330.00    1.10196   1.06983   57.881
 5331.00    1.13243   1.09868   54.382
 5332.00    1.14249   1.11854   52.671
 5333.00    1.14276   1.12782   52.143
 5334.00    1.15200   1.13201   51.644
 5335.00    1.15696   1.13396   51.041
 5336.00    1.15000   1.13340   50.830
 5337.00    1.14336   1.13007   51.171
 5338.00    1.14488   1.12352   51.502
 5339.00    1.13531   1.11370   52.073
 5340.00    1.11719   1.10427   53.412
 5341.00    1.11646   1.10209   54.340
 5342.00    1.13806   1.10975   53.859
 5343.00    1.15076   1.12135   52.374
 5344.00    1.15949   1.12861   51.448
 5345.00    1.15240   1.12874   51.467
 5346.00    1.15025   1.12446   51.812
 5347.00    1.14238   1.11962   52.145
 5348.00    1.13951   1.11651   52.399
 5349.00    1.13546   1.11687   52.879
 5350.00    1.13999   1.12213   52.997
 5351.00    1.15686   1.13115   52.153
 5352.00    1.16201   1.14018   50.930
 5353.00    1.15959   1.14672   50.309
 5354.00    1.16058   1.15183   50.159
 5355.00    1.17120   1.15722   49.758
 5356.00    1.17096   1.16227   49.115
 5357.00    1.17133   1.16524   48.752
 5358.00    1.17508   1.16551   48.806
 5359.00    1.17813   1.16327   48.881
 5360.00    1.17162   1.15840   49.062
 5361.00    1.16418   1.15098   49.649
 5362.00    1.16167   1.14224   50.490
 5363.00    1.14900   1.13389   51.228
 5364.00    1.13255   1.12739   51.579
 5365.00    1.13631   1.12381   51.877
 5366.00    1.13184   1.12302   52.190
 5367.00    1.13389   1.12230   52.017
 5368.00    1.13789   1.11734   52.019
 5369.00    1.12416   1.10550   52.563
 5370.00    1.11014   1.08982   53.894
 5371.00    1.10142   1.07981   55.544
 5372.00    1.10954   1.08462   55.681
 5373.00    1.13263   1.10378   53.591
 5374.00    1.15103   1.12708   51.104
 5375.00    1.16605   1.14423   49.881
 5376.00    1.17699   1.15229   49.529
 5377.00    1.17873   1.15417   49.688
 5378.00    1.17230   1.15305   49.704
 5379.00    1.16512   1.14989   49.804
 5380.00    1.16172   1.14479   50.098
 5381.00    1.15422   1.13875   50.600
 5382.00    1.14310   1.13373   51.099
 5383.00    1.14342   1.13189   51.343
 5384.00    1.15066   1.13456   51.302
 5385.00    1.16641   1.14097   51.054
 5386.00    1.17767   1.14778   50.497
 5387.00    1.16521   1.15106   50.409
 5388.00    1.16387   1.14900   50.644
 5389.00    1.16145   1.14264   51.143
 5390.00    1.15393   1.13472   51.935
 5391.00    1.14705   1.12746   52.512
 5392.00    1.14290   1.12178   52.738
 5393.00    1.14321   1.11775   52.758
 5394.00    1.14535   1.11388   52.924
 5395.00    1.13076   1.10695   53.323
 5396.00    1.12455   1.09675   54.037
 5397.00    1.11448   1.08970   55.145
 5398.00    1.12099   1.09288   55.156
 5399.00    1.14308   1.10527   53.476
 5400.00    1.15197   1.11877   51.941
 5401.00    1.14836   1.12607   51.658
 5402.00    1.15216   1.12381   51.763
 5403.00    1.13894   1.11154   52.183
 5404.00    1.12037   1.09318   53.804
 5405.00    1.10133   1.07800   55.561
 5406.00    1.09907   1.07459   56.376
 5407.00    1.11815   1.08217   55.734
 5408.00    1.12945   1.09140   54.537
 5409.00    1.12480   1.09535   54.084
 5410.00    1.11971   1.09704   54.581
 5411.00    1.12657   1.10306   54.301
 5412.00    1.14285   1.11337   52.831
 5413.00    1.16128   1.12205   51.609
 5414.00    1.15992   1.12599   51.085
 5415.00    1.14758   1.12821   51.129
 5416.00    1.14819   1.13238   51.152
 5417.00    1.15346   1.13777   50.757
 5418.00    1.15472   1.14132   50.437
 5419.00    1.15292   1.14206   50.658
 5420.00    1.15303   1.14101   51.170
 5421.00    1.15461   1.13868   51.471
 5422.00    1.15166   1.13456   51.250
 5423.00    1.14451   1.12902   51.046
 5424.00    1.13763   1.12520   51.786
 5425.00    1.13712   1.12698   52.252
 5426.00    1.14370   1.13299   51.672
 5427.00    1.15233   1.13507   50.787
 5428.00    1.14134   1.12704   50.974
 5429.00    1.11224   1.11359   52.416
 5430.00    1.11056   1.10545   54.108
 5431.00    1.13359   1.10605   54.167
 5432.00    1.14119   1.10849   53.169
 5433.00    1.13172   1.10586   53.168
 5434.00    1.11358   1.10042   53.948
 5435.00    1.11877   1.10036   54.567
 5436.00    1.12506   1.11009   54.348
 5437.00    1.15015   1.12620   53.245
 5438.00    1.15964   1.14183   51.766
 5439.00    1.16215   1.15263   50.691
 5440.00    1.17296   1.15865   49.990
 5441.00    1.17157   1.16154   49.581
 5442.00    1.17221   1.16122   49.504
 5443.00    1.16240   1.15525   49.503
 5444.00    1.15155   1.14116   50.039
 5445.00    1.13756   1.12043   51.396
 5446.00    1.10834   1.10090   53.543
 5447.00    1.10293   1.09281   55.304
 5448.00    1.12407   1.10010   54.854
 5449.00    1.14762   1.11667   53.054
 5450.00    1.16223   1.13236   51.577
 5451.00    1.16724   1.14048   51.105
 5452.00    1.16846   1.13912   51.123
 5453.00    1.15863   1.12868   51.570
 5454.00    1.13133   1.11241   52.792
 5455.00    1.11164   1.09863   54.322
 5456.00    1.11308   1.09715   55.494
 5457.00    1.12672   1.11008   54.651
 5458.00    1.15307   1.12867   52.728
 5459.00    1.16873   1.14173   51.299
 5460.00    1.16349   1.14450   51.031
 5461.00    1.15873   1.13899   51.651
 5462.00    1.15081   1.13017   52.635
 5463.00    1.14434   1.12379   53.341
 5464.00    1.14637   1.12357   53.625
 5465.00    1.14850   1.12862   52.937
 5466.00    1.15415   1.13508   52.321
 5467.00    1.16195   1.14022   52.082
 5468.00    1.16625   1.14367   51.493
 5469.00    1.16587   1.14541   51.286
 5470.00    1.16505   1.14484   51.784
 5471.00    1.16387   1.14187   52.327
 5472.00    1.15730   1.13720   52.505
 5473.00    1.14573   1.13099   52.777
 5474.00    1.13932   1.12204   53.323
 5475.00    1.13565   1.11006   54.087
 5476.00    1.12201   1.09907   55.256
 5477.00    1.11890   1.09620   56.113
 5478.00    1.12615   1.10405   55.574
 5479.00    1.14236   1.11632   53.846
 5480.00    1.14459   1.12437   52.836
 5481.00    1.14184   1.12627   53.267
 5482.00    1.14382   1.12681   53.935
 5483.00    1.14995   1.13069   53.817
 5484.00    1.15382   1.13765   52.858
 5485.00    1.15454   1.14334   51.771
 5486.00    1.15862   1.14412   51.332
 5487.00    1.14730   1.14061   51.850
 5488.00    1.14016   1.13651   52.603
 5489.00    1.14923   1.13494   52.900
 5490.00    1.15126   1.13642   52.905
 5491.00    1.15183   1.13946   52.523
 5492.00    1.15160   1.14212   52.140
 5493.00    1.15076   1.14316   51.952
 5494.00    1.15176   1.14216   52.073
 5495.00    1.14493   1.13873   52.091
 5496.00    1.14235   1.13311   52.082
 5497.00    1.14324   1.12800   52.473
 5498.00    1.13538   1.12655   52.842
 5499.00    1.13980   1.12771   52.545
 5500.00    1.14977   1.12698   51.942
 5501.00    1.13931   1.12302   52.377
 5502.00    1.13430   1.11998   53.233
 5503.00    1.14759   1.12092   53.310
 5504.00    1.15018   1.12257   52.860
 5505.00    1.13597   1.12021   52.756
 5506.00    1.12474   1.11491   53.489
 5507.00    1.12518   1.11268   54.016
 5508.00    1.13900   1.11688   53.503
 5509.00    1.15314   1.12387   52.632
 5510.00    1.15142   1.12721   52.417
 5511.00    1.14397   1.12438   52.774
 5512.00    1.13236   1.11816   53.826
 5513.00    1.12549   1.11341   54.714
 5514.00    1.13018   1.11344   55.193
 5515.00    1.14163   1.11845   54.520
 5516.00    1.15419   1.12648   53.557
 5517.00    1.16454   1.13514   52.748
 5518.00    1.16180   1.14250   51.753
 5519.00    1.16781   1.14717   50.896
 5520.00    1.18227   1.14888   50.780
 5521.00    1.17349   1.14877   50.861
 5522.00    1.15866   1.14833   50.963
 5523.00    1.15580   1.14739   51.142
 5524.00    1.15400   1.14356   51.228
 5525.00    1.14900   1.13422   51.540
 5526.00    1.13425   1.11967   52.248
 5527.00    1.11825   1.10516   53.465
 5528.00    1.11038   1.09840   54.853
 5529.00    1.12407   1.10353   55.150
 5530.00    1.13980   1.11682   53.937
 5531.00    1.14506   1.12944   52.499
 5532.00    1.15116   1.13489   51.828
 5533.00    1.15542   1.13315   51.944
 5534.00    1.14631   1.12895   52.439
 5535.00    1.13709   1.12741   52.693
 5536.00    1.14496   1.13025   52.508
 5537.00    1.15449   1.13537   52.071
 5538.00    1.15381   1.13999   51.947
 5539.00    1.15539   1.14345   51.719
 5540.00    1.15955   1.14607   51.210
 5541.00    1.16035   1.14710   50.804
 5542.00    1.15565   1.14552   50.833
 5543.00    1.15195   1.14228   51.366
 5544.00    1.15287   1.13995   51.887
 5545.00    1.15534   1.14007   52.017
 5546.00    1.14842   1.14218   51.868
 5547.00    1.15027   1.14565   51.751
 5548.00    1.16471   1.15023   51.422
 5549.00    1.16898   1.15460   50.909
 5550.00    1.16656   1.15667   50.483
 5551.00    1.16235   1.15578   50.370
 5552.00    1.15534   1.15297   50.644
 5553.00    1.15440   1.14961   51.089
 5554.00    1.15894   1.14703   51.680
 5555.00    1.15100   1.14616   51.925
 5556.00    1.15475   1.14683   51.845
 5557.00    1.15524   1.14793   51.679
 5558.00    1.15203   1.14888   51.592
 5559.00    1.15390   1.14961   51.527
 5560.00    1.16647   1.14935   51.472
 5561.00    1.16011   1.14697   51.584
 5562.00    1.14924   1.14294   51.852
 5563.00    1.14689   1.13919   52.385
 5564.00    1.15085   1.13683   52.750
 5565.00    1.14737   1.13521   52.898
 5566.00    1.14114   1.13342   53.005
 5567.00    1.15260   1.13127   53.059
 5568.00    1.14365   1.12910   52.946
 5569.00    1.14118   1.12742   52.834
 5570.00    1.13713   1.12603   52.991
 5571.00    1.14279   1.12397   52.950
 5572.00    1.14007   1.12169   52.956
 5573.00    1.13359   1.12139   53.114
 5574.00    1.13393   1.12409   52.883
 5575.00    1.10291   1.12841   52.312
 5576.00    1.08374   1.13258   51.873
 5577.00    1.21679   1.13621   -1.000
 5578.00    2.08267   1.13951   -1.000
 5579.00    2.19661   1.14183   -1.000
 5580.00    2.65870   1.14225   -1.000
 5581.00    2.48254   1.14112   -1.000
 5582.00    1.47015   1.13984   -1.000
 5583.00    1.12352   1.13841   52.282
 5584.00    1.16809   1.13427   52.172
 5585.00    1.14836   1.12457   52.477
 5586.00    1.12871   1.10998   53.658
 5587.00    1.11169   1.09562   55.024
 5588.00    1.10418   1.08746   56.259
 5589.00    1.10983   1.08828   56.683
 5590.00    1.12264   1.09648   56.006
 5591.00    1.13070   1.10693   54.986
 5592.00    1.13607   1.11421   54.216
 5593.00    1.13641   1.11690   54.055
 5594.00    1.13132   1.11829   54.278
 5595.00    1.13320   1.12146   53.950
 5596.00    1.14192   1.12468   53.164
 5597.00    1.14369   1.12402   52.724
 5598.00    1.13445   1.11937   53.229
 5599.00    1.12868   1.11372   54.171
 5600.00    1.13194   1.10848   54.746
 5601.00    1.12683   1.10419   54.707
 5602.00    1.11802   1.10382   55.019
 5603.00    1.11720   1.11057   55.286
 5604.00    1.13130   1.12356   54.373
 5605.00    1.15347   1.13812   52.872
 5606.00    1.17017   1.14943   51.663
 5607.00    1.17175   1.15577   51.049
 5608.00    1.16826   1.15842   50.943
 5609.00    1.16766   1.15952   51.022
 5610.00    1.16513   1.16031   51.127
 5611.00    1.16953   1.16001   51.075
 5612.00    1.16042   1.15565   50.913
 5613.00    1.15284   1.14439   51.157
 5614.00    1.13173   1.12785   52.223
 5615.00    1.11529   1.11384   54.056
 5616.00    1.11899   1.11055   55.312
 5617.00    1.13324   1.11828   54.855
 5618.00    1.14491   1.12978   53.525
 5619.00    1.16181   1.13850   52.787
 5620.00    1.16221   1.14323   52.667
 5621.00    1.15983   1.14501   52.429
 5622.00    1.15557   1.14366   52.166
 5623.00    1.14847   1.13889   52.392
 5624.00    1.13921   1.13319   53.440
 5625.00    1.14306   1.13085   54.435
 5626.00    1.15302   1.13379   54.197
 5627.00    1.16393   1.14004   53.271
 5628.00    1.16383   1.14646   52.501
 5629.00    1.16579   1.15134   51.893
 5630.00    1.16835   1.15427   51.511
 5631.00    1.16726   1.15513   51.368
 5632.00    1.16588   1.15409   51.161
 5633.00    1.16710   1.15193   51.215
 5634.00    1.16266   1.14934   51.622
 5635.00    1.16211   1.14629   51.993
 5636.00    1.16394   1.14296   52.320
 5637.00    1.15509   1.14012   52.707
 5638.00    1.15466   1.13843   53.064
 5639.00    1.15629   1.13753   53.068
 5640.00    1.15310   1.13661   53.010
 5641.00    1.14984   1.13580   53.192
 5642.00    1.14669   1.13615   53.221
 5643.00    1.15645   1.13800   53.006
 5644.00    1.16153   1.14051   52.758
 5645.00    1.15981   1.14285   52.676
 5646.00    1.16465   1.14458   52.305
 5647.00    1.16801   1.14550   52.159
 5648.00    1.16535   1.14550   52.023
 5649.00    1.16531   1.14489   51.947
 5650.00    1.15704   1.14465   52.076
 5651.00    1.16648   1.14538   52.072
 5652.00    1.17542   1.14627   51.654
 5653.00    1.17140   1.14594   51.517
 5654.00    1.15810   1.14342   51.718
 5655.00    1.14220   1.13765   52.137
 5656.00    1.14194   1.12778   52.640
 5657.00    1.13025   1.11589   53.657
 5658.00    1.11495   1.10772   55.322
 5659.00    1.11268   1.10759   56.224
 5660.00    1.12719   1.11358   55.408
 5661.00    1.13585   1.12024   54.185
 5662.00    1.14454   1.12515   53.977
 5663.00    1.14304   1.13005   54.071
 5664.00    1.15432   1.13577   53.465
 5665.00    1.15272   1.13970   52.700
 5666.00    1.14748   1.13945   52.491
 5667.00    1.15278   1.13634   52.775
 5668.00    1.14933   1.13397   53.093
 5669.00    1.14348   1.13454   53.158
 5670.00    1.14527   1.13764   53.020
 5671.00    1.15330   1.14177   52.675
 5672.00    1.15725   1.14576   52.215
 5673.00    1.16205   1.14884   51.689
 5674.00    1.16317   1.15066   51.191
 5675.00    1.16739   1.15152   51.206
 5676.00    1.16897   1.15209   51.379
 5677.00    1.16572   1.15243   51.216
 5678.00    1.16733   1.15171   51.134
 5679.00    1.16244   1.14919   51.398
 5680.00    1.16308   1.14465   51.608
 5681.00    1.15558   1.13827   51.914
 5682.00    1.14764   1.13131   52.524
 5683.00    1.14855   1.12634   53.151
 5684.00    1.14429   1.12538   53.268
 5685.00    1.14702   1.12753   52.955
 5686.00    1.14988   1.12962   52.718
 5687.00    1.14294   1.12959   52.970
 5688.00    1.14467   1.12861   53.602
 5689.00    1.15165   1.12939   53.778
 5690.00    1.14944   1.13327   53.171
 5691.00    1.15609   1.13912   52.182
 5692.00    1.16401   1.14463   51.690
 5693.00    1.16105   1.14828   51.362
 5694.00    1.16442   1.14985   51.270
 5695.00    1.16251   1.14988   51.335
 5696.00    1.15976   1.14892   51.374
 5697.00    1.15690   1.14687   51.522
 5698.00    1.15152   1.14321   52.034
 5699.00    1.14739   1.13820   52.641
 5700.00    1.14324   1.13327   53.105
 5701.00    1.14018   1.13019   53.677
 5702.00    1.14015   1.13010   53.922
 5703.00    1.14560   1.13239   53.517
 5704.00    1.14602   1.13449   52.953
 5705.00    1.14422   1.13378   52.826
 5706.00    1.13937   1.12933   53.184
 5707.00    1.12912   1.12181   53.942
 5708.00    1.12847   1.11304   54.954
 5709.00    1.11563   1.10586   55.812
 5710.00    1.10924   1.10324   56.134
 5711.00    1.11398   1.10664   55.999
 5712.00    1.12484   1.11508   55.421
 5713.00    1.14681   1.12556   54.273
 5714.00    1.15796   1.13473   52.924
 5715.00    1.15112   1.14093   52.116
 5716.00    1.15013   1.14461   51.931
 5717.00    1.15490   1.14696   51.820
 5718.00    1.16319   1.14891   51.657
 5719.00    1.15600   1.15110   51.402
 5720.00    1.16477   1.15358   51.068
 5721.00    1.16505   1.15584   50.830
 5722.00    1.16348   1.15746   50.709
 5723.00    1.16506   1.15830   50.631
 5724.00    1.17155   1.15793   50.570
 5725.00    1.16772   1.15562   50.692
 5726.00    1.16702   1.15173   51.122
 5727.00    1.16215   1.14816   51.665
 5728.00    1.15496   1.14662   52.076
 5729.00    1.15565   1.14708   51.795
 5730.00    1.15703   1.14819   51.482
 5731.00    1.15147   1.14895   51.624
 5732.00    1.15162   1.14985   51.890
 5733.00    1.15913   1.15202   51.695
 5734.00    1.15794   1.15502   51.187
 5735.00    1.15758   1.15693   50.863
 5736.00    1.16763   1.15694   50.909
 5737.00    1.16765   1.15595   50.970
 5738.00    1.16028   1.15511   51.126
 5739.00    1.16689   1.15487   51.163
 5740.00    1.16831   1.15492   51.276
 5741.00    1.16096   1.15466   51.352
 5742.00    1.15830   1.15423   51.468
 5743.00    1.15765   1.15438   51.346
 5744.00    1.15928   1.15528   51.297
 5745.00    1.16227   1.15591   50.917
 5746.00    1.16123   1.15525   50.643
 5747.00    1.15478   1.15381   50.919
 5748.00    1.15378   1.15329   51.431
 5749.00    1.16216   1.15412   51.627
 5750.00    1.16732   1.15430   51.323
 5751.00    1.15855   1.15145   51.164
 5752.00    1.15424   1.14577   51.567
 5753.00    1.14985   1.14056   52.199
 5754.00    1.14117   1.13965   52.722
 5755.00    1.15076   1.14401   52.713
 5756.00    1.15843   1.15123   52.039
 5757.00    1.16043   1.15769   51.070
 5758.00    1.16616   1.16074   50.465
 5759.00    1.16377   1.15944   50.617
 5760.00    1.16482   1.15462   51.187
 5761.00    1.16153   1.14835   51.860
 5762.00    1.15449   1.14373   52.571
 5763.00    1.14551   1.14378   52.836
 5764.00    1.15143   1.14880   52.270
 5765.00    1.14958   1.15559   51.333
 5766.00    1.16140   1.16046   50.704
 5767.00    1.16940   1.16235   50.543
 5768.00    1.16790   1.16224   50.492
 5769.00    1.16096   1.16124   50.406
 5770.00    1.15966   1.15981   50.508
 5771.00    1.16510   1.15803   50.676
 5772.00    1.16298   1.15588   50.958
 5773.00    1.15331   1.15347   51.275
 5774.00    1.15376   1.15124   51.404
 5775.00    1.15805   1.15002   51.468
 5776.00    1.15922   1.14991   51.361
 5777.00    1.15139   1.14930   51.103
 5778.00    1.15069   1.14634   51.053
 5779.00    1.13638   1.14087   51.212
 5780.00    1.11939   1.13433   51.953
 5781.00    1.11142   1.12881   53.129
 5782.00    1.11433   1.12600   53.830
 5783.00    1.12461   1.12603   53.745
 5784.00    1.13122   1.12769   53.534
 5785.00    1.13623   1.13004   53.342
 5786.00    1.14426   1.13328   53.147
 5787.00    1.15631   1.13745   52.559
 5788.00    1.15661   1.14136   51.860
 5789.00    1.15455   1.14355   51.457
 5790.00    1.15495   1.14390   51.507
 5791.00    1.15095   1.14411   51.739
 5792.00    1.15497   1.14619   51.668
 5793.00    1.15910   1.15041   51.245
 5794.00    1.15919   1.15509   50.893
 5795.00    1.16145   1.15796   50.585
 5796.00    1.15614   1.15787   50.544
 5797.00    1.15857   1.15609   50.842
 5798.00    1.15829   1.15533   51.169
 5799.00    1.16887   1.15701   50.938
 5800.00    1.17433   1.16019   50.293
 5801.00    1.17056   1.16294   49.601
 5802.00    1.17186   1.16377   49.472
 5803.00    1.17172   1.16228   49.877
 5804.00    1.17151   1.15966   50.269
 5805.00    1.16363   1.15789   50.680
 5806.00    1.16781   1.15798   50.910
 5807.00    1.17232   1.15946   50.801
 5808.00    1.16557   1.16113   50.610
 5809.00    1.17906   1.16234   50.458
 5810.00    1.17574   1.16319   50.452
 5811.00    1.17460   1.16378   50.405
 5812.00    1.17739   1.16365   50.217
 5813.00    1.18322   1.16219   50.068
 5814.00    1.17990   1.15938   50.161
 5815.00    1.17514   1.15643   50.574
 5816.00    1.18226   1.15532   50.813
 5817.00    1.18173   1.15713   50.566
 5818.00    1.17620   1.16075   50.217
 5819.00    1.18023   1.16398   49.941
 5820.00    1.18281   1.16565   49.694
 5821.00    1.18831   1.16602   49.526
 5822.00    1.18474   1.16582   49.600
 5823.00    1.18301   1.16543   49.775
 5824.00    1.18388   1.16510   49.693
 5825.00    1.18585   1.16523   49.619
 5826.00    1.18378   1.16600   49.526
 5827.00    1.18232   1.16712   49.478
 5828.00    1.18537   1.16818   49.490
 5829.00    1.17615   1.16880   49.588
 5830.00    1.17125   1.16880   49.494
 5831.00    1.17821   1.16826   49.505
 5832.00    1.18537   1.16719   49.438
 5833.00    1.18667   1.16565   49.533
 5834.00    1.18527   1.16422   49.861
 5835.00    1.18340   1.16374   49.950
 5836.00    1.18594   1.16445   49.790
 5837.00    1.18515   1.16583   49.689
 5838.00    1.18111   1.16727   49.844
 5839.00    1.18309   1.16849   49.960
 5840.00    1.18121   1.16935   49.808
 5841.00    1.18093   1.16956   49.444
 5842.00    1.18390   1.16883   49.182
 5843.00    1.17895   1.16715   49.186
 5844.00    1.17817   1.16482   49.347
 5845.00    1.18168   1.16213   49.539
 5846.00    1.17440   1.15953   49.868
 5847.00    1.17078   1.15766   50.119
 5848.00    1.17395   1.15667   50.367
 5849.00    1.17662   1.15573   50.319
 5850.00    1.18009   1.15346   50.396
 5851.00    1.18306   1.14906   50.679
 5852.00    1.17615   1.14337   50.997
 5853.00    1.16604   1.13854   51.497
 5854.00    1.16213   1.13547   51.752
 5855.00    1.15004   1.13231   51.845
 5856.00    1.15337   1.12710   51.900
 5857.00    1.15263   1.12166   52.422
 5858.00    1.14114   1.12023   52.911
 5859.00    1.14942   1.12440   52.573
 5860.00    1.17032   1.13144   -1.000
 5861.00    1.17030   1.13774   51.480
 5862.00    1.17725   1.14192   51.304
 5863.00    1.17914   1.14440   51.086
 5864.00    1.17644   1.14518   51.012
 5865.00    1.16948   1.14393   51.146
 5866.00    1.16582   1.14178   51.325
 5867.00    1.16891   1.14109   51.576
 5868.00    1.17896   1.14317   51.533
 5869.00    1.17991   1.14707   51.055
 5870.00    1.18759   1.15068   50.622
 5871.00    1.18202   1.15227   50.395
 5872.00    1.17869   1.15147   50.380
 5873.00    1.17707   1.14918   50.513
 5874.00    1.18081   1.14660   50.524
 5875.00    1.17598   1.14452   50.450
 5876.00    1.17244   1.14303   50.591
 5877.00    1.17922   1.14144   50.808
 5878.00    1.17952   1.13903   -1.000
 5879.00    1.17532   1.13602   51.277
 5880.00    1.17333   1.13306   -1.000
 5881.00    1.17148   1.13019   -1.000
 5882.00    1.16604   1.12683   -1.000
 5883.00    1.16657   1.12278   -1.000
 5884.00    1.16519   1.11833   -1.000
 5885.00    1.15582   1.11240   -1.000
 5886.00    1.15107   1.10014   -1.000
 5887.00    1.13562   1.07522   -1.000
 5888.00    1.08560   1.03873   -1.000
 5889.00    1.02039   1.00469   57.911
 5890.00    1.01954   0.99026   61.601
 5891.00    1.08758   0.99885   -1.000
 5892.00    1.19599   1.01682   -1.000
 5893.00    1.16089   1.02673   -1.000
 5894.00    1.07406   1.02199   -1.000
 5895.00    1.06251   1.01116   -1.000
 5896.00    1.03032   1.00900   59.891
 5897.00    1.07438   1.02211   -1.000
 5898.00    1.15967   1.04469   -1.000
 5899.00    1.19907   1.06760   -1.000
 5900.00    1.17963   1.08647   -1.000
 5901.00    1.16293   1.10098   -1.000
 5902.00    1.15247   1.11150   -1.000
 5903.00    1.15313   1.11833   51.907
 5904.00    1.15597   1.12232   51.847
 5905.00    1.15391   1.12470   51.836
 5906.00    1.15792   1.12636   51.916
 5907.00    1.16577   1.12776   -1.000
 5908.00    1.16810   1.12923   -1.000
 5909.00    1.16377   1.13068   51.673
 5910.00    1.15863   1.13138   51.844
 5911.00    1.15361   1.13041   51.924
 5912.00    1.16263   1.12718   51.978
 5913.00    1.15247   1.12208   52.170
 5914.00    1.14635   1.11688   52.914
 5915.00    1.14417   1.11372   53.324
 5916.00    1.15097   1.11357   53.236
 5917.00    1.15563   1.11614   -1.000
 5918.00    1.16158   1.12023   -1.000
 5919.00    1.15982   1.12396   52.510
 5920.00    1.15110   1.12607   52.384
 5921.00    1.14907   1.12680   52.189
 5922.00    1.15132   1.12717   52.202
 5923.00    1.14555   1.12807   52.252
 5924.00    1.15407   1.12990   52.048
 5925.00    1.15583   1.13231   51.882
 5926.00    1.15774   1.13422   51.786
 5927.00    1.16009   1.13425   51.747
 5928.00    1.16545   1.13177   51.841
 5929.00    1.15626   1.12836   52.212
 5930.00    1.14413   1.12677   52.623
 5931.00    1.14211   1.12786   52.587
 5932.00    1.15000   1.12987   52.078
 5933.00    1.15506   1.13076   51.828
 5934.00    1.14498   1.13052   52.196
 5935.00    1.15140   1.13067   52.563
 5936.00    1.15974   1.13203   52.652
 5937.00    1.15953   1.13353   52.328
 5938.00    1.15720   1.13336   51.883
 5939.00    1.15456   1.13101   51.682
 5940.00    1.15517   1.12767   51.861
 5941.00    1.15264   1.12486   52.392
 5942.00    1.14529   1.12355   52.689
 5943.00    1.14313   1.12423   52.661
 5944.00    1.14900   1.12642   52.357
 5945.00    1.15630   1.12840   52.049
 5946.00    1.15018   1.12846   51.842
 5947.00    1.14513   1.12668   51.979
 5948.00    1.13897   1.12507   52.440
 5949.00    1.13533   1.12534   52.996
 5950.00    1.14510   1.12689   53.126
 5951.00    1.14564   1.12801   52.865
 5952.00    1.14273   1.12808   52.664
 5953.00    1.14826   1.12764   52.792
 5954.00    1.15592   1.12695   52.754
 5955.00    1.16385   1.12573   -1.000
 5956.00    1.15524   1.12444   52.664
 5957.00    1.14641   1.12446   52.878
 5958.00    1.14709   1.12664   52.958
 5959.00    1.14518   1.13045   52.759
 5960.00    1.14990   1.13447   52.160
 5961.00    1.15226   1.13748   51.654
 5962.00    1.15493   1.13880   51.443
 5963.00    1.14953   1.13820   51.383
 5964.00    1.14486   1.13608   51.498
 5965.00    1.14674   1.13355   51.781
 5966.00    1.14783   1.13197   51.958
 5967.00    1.14963   1.13205   52.147
 5968.00    1.15039   1.13344   52.035
 5969.00    1.14839   1.13544   51.643
 5970.00    1.14974   1.13749   51.509
 5971.00    1.15131   1.13898   51.493
 5972.00    1.14902   1.13931   51.383
 5973.00    1.15383   1.13821   51.324
 5974.00    1.15477   1.13553   51.594
 5975.00    1.14723   1.13158   52.003
 5976.00    1.14738   1.12775   52.401
 5977.00    1.14219   1.12591   52.776
 5978.00    1.14087   1.12703   53.017
 5979.00    1.14761   1.13031   52.794
 5980.00    1.14690   1.13342   52.346
 5981.00    1.14747   1.13404   52.138
 5982.00    1.14144   1.13149   52.254
 5983.00    1.14814   1.12723   52.674
 5984.00    1.14765   1.12397   53.138
 5985.00    1.13781   1.12358   53.408
 5986.00    1.14394   1.12575   53.231
 5987.00    1.14335   1.12877   52.682
 5988.00    1.14503   1.13123   52.357
 5989.00    1.14764   1.13256   52.179
 5990.00    1.15074   1.13309   51.927
 5991.00    1.14364   1.13395   51.995
 5992.00    1.14041   1.13626   52.117
 5993.00    1.13888   1.13963   51.873
 5994.00    1.14438   1.14205   51.442
 5995.00    1.14968   1.14195   51.287
 5996.00    1.14297   1.13982   51.627
 5997.00    1.14113   1.13746   51.990
 5998.00    1.13910   1.13629   52.223
 5999.00    1.14675   1.13618   52.336
 6000.00    1.15372   1.13590   52.249
 6001.00    1.14537   1.13462   52.293
 6002.00    1.13749   1.13273   52.597
 6003.00    1.13373   1.13122   52.777
 6004.00    1.13575   1.13035   52.766
 6005.00    1.13369   1.12900   52.625
 6006.00    1.13273   1.12605   52.652
 6007.00    1.12893   1.12255   53.021
 6008.00    1.12982   1.12131   53.553
 6009.00    1.13252   1.12381   53.571
 6010.00    1.13272   1.12814   52.977
 6011.00    1.13111   1.13101   52.421
 6012.00    1.13051   1.13134   52.422
 6013.00    1.13284   1.13059   52.815
 6014.00    1.13851   1.13014   53.100
 6015.00    1.13984   1.12993   52.858
 6016.00    1.13445   1.12929   52.836
 6017.00    1.12978   1.12804   53.061
 6018.00    1.13057   1.12627   53.172
 6019.00    1.13053   1.12426   53.043
 6020.00    1.12860   1.12262   53.191
 6021.00    1.12532   1.12196   53.526
 6022.00    1.12554   1.12240   53.347
 6023.00    1.13378   1.12389   52.986
 6024.00    1.13090   1.12662   52.861
 6025.00    1.12638   1.13041   52.793
 6026.00    1.13242   1.13429   52.486
 6027.00    1.13029   1.13743   52.322
 6028.00    1.12701   1.13982   51.998
 6029.00    1.13676   1.14160   51.766
 6030.00    1.14276   1.14282   51.689
 6031.00    1.14067   1.14359   51.699
 6032.00    1.13986   1.14415   51.816
 6033.00    1.14677   1.14486   51.733
 6034.00    1.14561   1.14590   51.506
 6035.00    1.14518   1.14673   51.371
 6036.00    1.14824   1.14643   51.344
 6037.00    1.14324   1.14474   51.251
 6038.00    1.13427   1.14226   51.300
 6039.00    1.13254   1.13964   51.584
 6040.00    1.13198   1.13688   51.700
 6041.00    1.12772   1.13306   51.860
 6042.00    1.13575   1.12872   51.763
 6043.00    1.14140   1.12786   51.689
 6044.00    1.13720   1.13293   51.433
 6045.00    1.13325   1.14036   51.027
 6046.00    1.13583   1.14552   51.034
 6047.00    1.13210   1.14770   51.051
 6048.00    1.13474   1.14819   50.971
 6049.00    1.13582   1.14784   51.013
 6050.00    1.13472   1.14714   51.188
 6051.00    1.13713   1.14642   51.307
 6052.00    1.13066   1.14553   51.356
 6053.00    1.13483   1.14401   51.451
 6054.00    1.12949   1.14166   51.657
 6055.00    1.12409   1.13909   51.818
 6056.00    1.12793   1.13734   52.100
 6057.00    1.13251   1.13707   52.266
 6058.00    1.13476   1.13810   52.190
 6059.00    1.13948   1.13971   51.921
 6060.00    1.13492   1.14081   51.652
 6061.00    1.13232   1.13996   51.695
 6062.00    1.14167   1.13613   51.812
 6063.00    1.10966   1.12976   52.520
 6064.00    1.10508   1.12348   53.541
 6065.00    1.01819   1.12100   -1.000
 6066.00    0.98631   1.12423   -1.000
 6067.00    1.05559   1.13130   18.284
 6068.00    1.09172   1.13843   38.453
 6069.00    1.10204   1.14332   53.240
 6070.00    1.12197   1.14596   51.797
 6071.00    0.50037   1.14728   -1.000
 6072.00    0.74452   1.14804   -1.000
 6073.00    1.11481   1.14844   50.765
 6074.00    1.13799   1.14808   51.188
 6075.00    1.13449   1.14642   51.248
 6076.00    1.13000   1.14354   51.412
 6077.00    1.11829   1.14033   51.675
 6078.00    1.11553   1.13775   51.970
 6079.00    1.11294   1.13607   52.368
 6080.00    1.11679   1.13467   52.695
 6081.00    1.12142   1.13299   52.743
 6082.00    1.12359   1.13137   52.787
 6083.00    1.11852   1.13064   52.933
 6084.00    1.11575   1.13102   52.941
 6085.00    1.11550   1.13214   52.902
 6086.00    1.11906   1.13367   52.847
 6087.00    1.12427   1.13514   52.700
 6088.00    1.11705   1.13576   52.491
 6089.00    1.11411   1.13496   52.570
 6090.00    1.11453   1.13314   52.879
 6091.00    1.11089   1.13172   53.112
 6092.00    1.11179   1.13199   53.102
 6093.00    1.11250   1.13399   52.781
 6094.00    1.11280   1.13679   52.509
 6095.00    1.11737   1.13954   52.215
 6096.00    1.12114   1.14190   51.983
 6097.00    1.11998   1.14353   51.984
 6098.00    1.12063   1.14344   52.109
 6099.00    1.11920   1.13991   52.151
 6100.00    1.10590   1.13170   52.156
 6101.00    1.09431   1.12022   52.731
 6102.00    1.08914   1.11042   53.985
 6103.00    1.08513   1.10769   54.898
 6104.00    1.09191   1.11281   54.598
 6105.00    1.10560   1.12161   53.589
 6106.00    1.11230   1.12952   52.758
 6107.00    1.10874   1.13503   52.529
 6108.00    1.10554   1.13872   52.706
 6109.00    1.10926   1.14096   52.846
 6110.00    1.11290   1.14162   52.835
 6111.00    1.11579   1.14116   52.726
 6112.00    1.11204   1.14078   52.502
 6113.00    1.11062   1.14122   52.472
 6114.00    1.11164   1.14207   52.217
 6115.00    1.11008   1.14253   52.075
 6116.00    1.11247   1.14214   52.252
 6117.00    1.11361   1.14020   52.591
 6118.00    1.11059   1.13514   52.689
 6119.00    1.10050   1.12597   52.926
 6120.00    1.09359   1.11390   53.655
 6121.00    1.08071   1.10289   54.366
 6122.00    1.07727   1.09848   54.898
 6123.00    1.08456   1.10286   54.982
 6124.00    1.09471   1.11225   54.163
 6125.00    1.09759   1.12115   53.439
 6126.00    1.09770   1.12673   53.367
 6127.00    1.09740   1.12921   53.659
 6128.00    1.09823   1.13072   53.628
 6129.00    1.10222   1.13348   53.509
 6130.00    1.10400   1.13769   53.099
 6131.00    1.10787   1.14152   52.599
 6132.00    1.10806   1.14261   52.455
 6133.00    1.10432   1.13842   52.543
 6134.00    1.08604   1.12710   53.008
 6135.00    1.07394   1.11036   54.153
 6136.00    1.05593   1.09515   55.739
 6137.00    1.04860   1.08906   57.169
 6138.00    1.05929   1.09289   57.449
 6139.00    1.07744   1.10025   56.134
 6140.00    1.08263   1.10538   54.540
 6141.00    1.07856   1.10892   53.851
 6142.00    1.08224   1.11441   53.895
 6143.00    1.08522   1.12217   53.992
 6144.00    1.09056   1.12904   53.502
 6145.00    1.09331   1.13235   52.860
 6146.00    1.09993   1.13202   52.729
 6147.00    1.09714   1.12954   52.951
 6148.00    1.08786   1.12647   53.284
 6149.00    1.08857   1.12402   53.667
 6150.00    1.08302   1.12307   53.988
 6151.00    1.07906   1.12390   54.019
 6152.00    1.08642   1.12553   53.835
 6153.00    1.08929   1.12615   53.471
 6154.00    1.08885   1.12490   53.376
 6155.00    1.09761   1.12265   53.787
 6156.00    1.09125   1.12041   54.087
 6157.00    1.08694   1.11785   54.144
 6158.00    1.08305   1.11295   54.350
 6159.00    1.07274   1.10277   54.899
 6160.00    1.06230   1.08671   55.911
 6161.00    1.04786   1.06962   57.559
 6162.00    1.03208   1.05931   59.248
 6163.00    1.03477   1.05969   59.925
 6164.00    1.04990   1.06781   59.156
 6165.00    1.05927   1.07757   57.567
 6166.00    1.06264   1.08430   56.613
 6167.00    1.06760   1.08616   56.324
 6168.00    1.05694   1.08407   56.442
 6169.00    1.05030   1.08178   57.131
 6170.00    1.04964   1.08330   57.733
 6171.00    1.06301   1.08922   57.397
 6172.00    1.07172   1.09682   56.330
 6173.00    1.07021   1.10351   55.508
 6174.00    1.07615   1.10842   55.490
 6175.00    1.07362   1.11156   55.546
 6176.00    1.06350   1.11327   55.424
 6177.00    1.06776   1.11426   55.313
 6178.00    1.07619   1.11503   55.168
 6179.00    1.07892   1.11587   54.905
 6180.00    1.07588   1.11722   54.698
 6181.00    1.07045   1.11910   54.523
 6182.00    1.07578   1.12066   54.275
 6183.00    1.08310   1.12103   54.127
 6184.00    1.08024   1.11991   54.215
 6185.00    1.07869   1.11743   54.403
 6186.00    1.07616   1.11390   54.817
 6187.00    1.07288   1.10945   55.408
 6188.00    1.07117   1.10354   55.985
 6189.00    1.06368   1.09575   56.521
 6190.00    1.05433   1.08801   56.940
 6191.00    1.04741   1.08457   57.659
 6192.00    1.04984   1.08803   58.067
 6193.00    1.06166   1.09636   57.504
 6194.00    1.06798   1.10523   56.125
 6195.00    1.06895   1.11175   55.160
 6196.00    1.06970   1.11506   54.778
 6197.00    1.06459   1.11506   54.680
 6198.00    1.06519   1.11242   55.001
 6199.00    1.06406   1.10941   55.625
 6200.00    1.05927   1.10885   56.098
 6201.00    1.06047   1.11155   56.088
 6202.00    1.06749   1.11596   55.557
 6203.00    1.06443   1.12005   54.864
 6204.00    1.06435   1.12274   54.661
 6205.00    1.06502   1.12411   54.660
 6206.00    1.06608   1.12479   54.577
 6207.00    1.06692   1.12509   54.565
 6208.00    1.06932   1.12470   54.760
 6209.00    1.07439   1.12294   54.777
 6210.00    1.07618   1.11929   54.994
 6211.00    1.07170   1.11361   55.481
 6212.00    1.06478   1.10655   55.924
 6213.00    1.05586   1.09990   56.461
 6214.00    1.04943   1.09553   57.300
 6215.00    1.04678   1.09383   57.908
 6216.00    1.04814   1.09354   58.095
 6217.00    1.04927   1.09298   57.408
 6218.00    1.05240   1.09166   57.077
 6219.00    1.04826   1.09079   57.457
 6220.00    1.04699   1.09193   57.312
 6221.00    1.05930   1.09507   56.895
 6222.00    1.03725   1.09850   57.176
 6223.00    0.97560   1.10074   -1.000
 6224.00    1.04502   1.10183   59.742
 6225.00    1.06950   1.10220   56.924
 6226.00    1.06322   1.10133   56.542
 6227.00    1.05960   1.09777   56.600
 6228.00    1.05117   1.09064   56.889
 6229.00    1.04798   1.08151   57.628
 6230.00    1.03858   1.07440   58.578
 6231.00    1.03274   1.07306   59.350
 6232.00    1.03266   1.07803   59.193
 6233.00    1.04257   1.08650   58.385
 6234.00    1.05370   1.09449   57.296
 6235.00    1.06311   1.09908   56.347
 6236.00    1.06224   1.09956   56.024
 6237.00    1.06403   1.09707   56.345
 6238.00    1.06673   1.09359   56.907
 6239.00    1.05762   1.09066   57.486
 6240.00    1.05603   1.08869   58.097
 6241.00    1.04863   1.08677   58.378
 6242.00    1.04604   1.08369   58.377
 6243.00    1.03858   1.07927   58.756
 6244.00    1.03986   1.07490   59.156
 6245.00    1.03914   1.07298   59.161
 6246.00    1.03068   1.07544   58.812
 6247.00    1.03314   1.08192   58.246
 6248.00    1.04029   1.08936   57.517
 6249.00    1.04542   1.09371   56.901
 6250.00    1.04800   1.09242   56.788
 6251.00    1.03294   1.08620   57.260
 6252.00    1.02019   1.07860   58.274
 6253.00    1.01519   1.07328   59.041
 6254.00    1.01323   1.07136   59.473
 6255.00    1.01574   1.07155   59.661
 6256.00    1.01369   1.07215   59.655
 6257.00    1.01459   1.07291   60.131
 6258.00    1.01968   1.07484   60.679
 6259.00    1.03095   1.07872   60.510
 6260.00    1.03901   1.08414   59.657
 6261.00    1.04438   1.08997   58.752
 6262.00    1.03854   1.09490   57.947
 6263.00    1.03815   1.09783   57.062
 6264.00    1.03631   1.09885   56.706
 6265.00    1.03786   1.09938   57.081
 6266.00    1.03728   1.10054   57.481
 6267.00    1.04150   1.10165   57.297
 6268.00    1.03939   1.10140   56.887
 6269.00    1.03612   1.09982   57.013
 6270.00    1.02919   1.09819   57.303
 6271.00    1.02799   1.09711   57.272
 6272.00    1.03306   1.09549   57.082
 6273.00    1.03394   1.09143   56.939
 6274.00    1.03208   1.08409   57.056
 6275.00    1.03104   1.07470   57.444
 6276.00    1.01180   1.06570   57.907
 6277.00    0.99167   1.05911   58.780
 6278.00    0.96700   1.05579   -1.000
 6279.00    0.94487   1.05586   -1.000
 6280.00    0.93860   1.05937   -1.000
 6281.00    0.94241   1.06603   -1.000
 6282.00    0.95273   1.07468   -1.000
 6283.00    0.95652   1.08350   -1.000
 6284.00    0.96430   1.09081   -1.000
 6285.00    0.97137   1.09595   -1.000
 6286.00    0.98539   1.09906   -1.000
 6287.00    0.99979   1.10030   -1.000
 6288.00    1.01254   1.09951   -1.000
 6289.00    1.01660   1.09699   -1.000
 6290.00    1.01294   1.09397   -1.000
 6291.00    1.01409   1.09168   -1.000
 6292.00    1.01290   1.09035   -1.000
 6293.00    1.00713   1.08929   -1.000
 6294.00    1.00457   1.08748   -1.000
 6295.00    1.00656   1.08438   -1.000
 6296.00    1.00535   1.08061   -1.000
 6297.00    0.98879   1.07764   -1.000
 6298.00    0.97247   1.07615   -1.000
 6299.00    0.96029   1.07532   -1.000
 6300.00    0.93426   1.07441   -1.000
 6301.00    0.90789   1.07442   -1.000
 6302.00    0.92431   1.07716   -1.000
 6303.00    0.97369   1.08269   -1.000
 6304.00    1.00585   1.08895   -1.000
 6305.00    1.01732   1.09396   -1.000
 6306.00    1.01929   1.09740   -1.000
 6307.00    1.02360   1.09979   -1.000
 6308.00    1.03065   1.10135   56.370
 6309.00    1.03122   1.10201   56.220
 6310.00    1.02549   1.10163   -1.000
 6311.00    1.01744   1.10022   -1.000
 6312.00    1.01141   1.09798   -1.000
 6313.00    1.00993   1.09510   -1.000
 6314.00    1.00937   1.09198   -1.000
 6315.00    1.00156   1.08908   -1.000
 6316.00    0.99578   1.08667   -1.000
 6317.00    0.99933   1.08533   -1.000
 6318.00    1.00132   1.08626   -1.000
 6319.00    1.00165   1.08991   -1.000
 6320.00    1.00571   1.09484   -1.000
 6321.00    1.01129   1.09936   -1.000
 6322.00    1.01569   1.10327   -1.000
 6323.00    1.01895   1.10697   -1.000
 6324.00    1.02103   1.11000   -1.000
 6325.00    1.02151   1.11155   -1.000
 6326.00    1.02549   1.11170   -1.000
 6327.00    1.03167   1.11125   -1.000
 6328.00    1.02630   1.11088   -1.000
 6329.00    1.01982   1.11100   -1.000
 6330.00    1.02419   1.11170   -1.000
 6331.00    1.02895   1.11230   -1.000
 6332.00    1.03304   1.11111   55.369
 6333.00    1.03136   1.10669   55.257
 6334.00    1.03512   1.09984   55.374
 6335.00    1.03040   1.09380   55.519
 6336.00    1.00652   1.09182   -1.000
 6337.00    1.00556   1.09438   -1.000
 6338.00    1.01819   1.09943   -1.000
 6339.00    1.02535   1.10458   -1.000
 6340.00    1.02810   1.10842   -1.000
 6341.00    1.03270   1.11018   55.061
 6342.00    1.02998   1.10971   -1.000
 6343.00    1.02599   1.10776   -1.000
 6344.00    1.02951   1.10582   55.225
 6345.00    1.02623   1.10529   -1.000
 6346.00    1.02606   1.10682   -1.000
 6347.00    1.02907   1.11017   -1.000
 6348.00    1.03003   1.11440   -1.000
 6349.00    1.03681   1.11819   -1.000
 6350.00    1.03663   1.12035   -1.000
 6351.00    1.02957   1.12024   -1.000
 6352.00    1.02681   1.11794   -1.000
 6353.00    1.02623   1.11432   -1.000
 6354.00    1.02450   1.11074   -1.000
 6355.00    1.02513   1.10804   -1.000
 6356.00    1.02628   1.10588   -1.000
 6357.00    1.02765   1.10349   55.905
 6358.00    1.02407   1.10085   -1.000
 6359.00    1.01708   1.09848   -1.000
 6360.00    1.01392   1.09654   -1.000
 6361.00    1.01513   1.09503   -1.000
 6362.00    1.00809   1.09446   -1.000
 6363.00    0.99720   1.09553   -1.000
 6364.00    0.99296   1.09815   -1.000
 6365.00    0.99177   1.10148   -1.000
 6366.00    0.99996   1.10467   -1.000
 6367.00    1.01388   1.10707   -1.000
 6368.00    1.01983   1.10817   -1.000
 6369.00    1.02307   1.10817   -1.000
 6370.00    1.01652   1.10808   -1.000
 6371.00    1.01495   1.10889   -1.000
 6372.00    1.01897   1.11075   -1.000
 6373.00    1.02401   1.11281   -1.000
 6374.00    1.02146   1.11383   -1.000
 6375.00    1.01274   1.11331   -1.000
 6376.00    1.01231   1.11162   -1.000
 6377.00    1.00990   1.10944   -1.000
 6378.00    1.00422   1.10718   -1.000
 6379.00    1.00456   1.10505   -1.000
 6380.00    1.00309   1.10329   -1.000
 6381.00    1.00072   1.10222   -1.000
 6382.00    0.99715   1.10200   -1.000
 6383.00    0.99932   1.10255   -1.000
 6384.00    0.99599   1.10372   -1.000
 6385.00    0.98957   1.10531   -1.000
 6386.00    0.99150   1.10698   -1.000
 6387.00    0.99217   1.10807   -1.000
 6388.00    0.98462   1.10801   -1.000
 6389.00    0.98048   1.10640   -1.000
 6390.00    0.97421   1.10270   -1.000
 6391.00    0.96889   1.09705   -1.000
 6392.00    0.95823   1.09153   -1.000
 6393.00    0.94409   1.08932   -1.000
 6394.00    0.93930   1.09184   -1.000
 6395.00    0.94307   1.09695   -1.000
 6396.00    0.94279   1.10047   -1.000
 6397.00    0.94220   1.09946   -1.000
 6398.00    0.93943   1.09454   -1.000
 6399.00    0.93065   1.08969   -1.000
 6400.00    0.91793   1.08914   -1.000
 6401.00    0.91214   1.09393   -1.000
 6402.00    0.92333   1.10141   -1.000
 6403.00    0.93014   1.10772   -1.000
 6404.00    0.92607   1.11025   -1.000
 6405.00    0.91497   1.10836   -1.000
 6406.00    0.91005   1.10316   -1.000
 6407.00    0.90034   1.09720   -1.000
 6408.00    0.88790   1.09367   -1.000
 6409.00    0.88778   1.09390   -1.000
 6410.00    0.88238   1.09601   -1.000
 6411.00    0.86797   1.09782   -1.000
 6412.00    0.86226   1.09932   -1.000
 6413.00    0.86911   1.10113   -1.000
 6414.00    0.86660   1.10303   -1.000
 6415.00    0.86217   1.10457   -1.000
 6416.00    0.85250   1.10542   -1.000
 6417.00    0.84707   1.10470   -1.000
 6418.00    0.84143   1.10160   -1.000
 6419.00    0.83638   1.09700   -1.000
 6420.00    0.81834   1.09367   -1.000
 6421.00    0.80785   1.09435   -1.000
 6422.00    0.80103   1.09923   -1.000
 6423.00    0.80987   1.10589   -1.000
 6424.00    0.80626   1.11177   -1.000
 6425.00    0.79913   1.11576   -1.000
 6426.00    0.79170   1.11735   -1.000
 6427.00    0.77887   1.11559   -1.000
 6428.00    0.77017   1.11007   -1.000
