###################################################################
## OUTPUT of StarlightChains_v04.for    [Cid@UFSC - 01/Apr/2007] ##
###################################################################

## Some input info
NGC6304_a_1.cxt                          [arq_obs]
Base.BC03.S                              [arq_base]
NGC6304_a_1.msk                          [arq_masks]
StCv04.C99.config                        [arq_config]
  150                                    [N_base]
    0                                    [N_YAV_components = # of components with extra extinction!]
    0                                    [i_FitPowerLaw (1/0 = Yes/No)]
-9.99                                    [alpha_PowerLaw]
CCM                                      [red_law_option]
 1.458241                                [q_norm = A(l_norm)/A(V)]

## (Re)Sampling Parameters
 3359.00                                 [l_ini (A)]
 6428.00                                 [l_fin (A)]
    1.00                                 [dl    (A)]     (OBS: dl_cushion =    50.00 A)

## Normalization info
 4020.00                                 [l_norm (A) - for base]
 4010.00                                 [llow_norm (A) - window for f_obs]
 4060.00                                 [lupp_norm (A) - window for f_obs]
6.037552E-15                             [fobs_norm (in input units)]

## S/N
 4730.00                                 [llow_SN (A) - window for S/N]
 4780.00                                 [lupp_SN (A) - window for S/N]
  34.026                                 [S/N in S/N window]
  19.978                                 [S/N in norm. window]
 118.990                                 [S/N_err in S/N window]
  69.864                                 [S/N_err in norm. window]
  1.0000                                 [fscale_chi2]

## etc...
  2147483619                             [idum_orig]
  3064                                   [NOl_eff]
  1365                                   [Nl_eff]
  1699    NSIGMA                         [Ntot_cliped & clip_method]
  3732960                                [Nglobal_steps]
   7                                     [N_chains]
  21                                     [NEX0s_base = N_base in EX0s-fits]
 0   0   1      178   2.0   5.094E+02    [Clip-Bug, RC-Crash & Burn-In warning-flags, n_censored_weights, wei_nsig_threshold & wei_limit]
   149    149.670    149.658      0.012  [idt_all, wdt_TotTime, wdt_UsrTime & wdt_SysTime (sec)]

## Synthesis Results - Best model ##

 2.51966E+00                             [chi2/Nl_eff]
     2.29500                             [adev (%)]

    98.68722                             [sum-of-x (%)]
 3.54198E-14                             [Flux_tot (units of input spectrum!)]
 1.99544E-09                             [Mini_tot (???)]
 1.00045E-09                             [Mcor_tot (???)]

   8.55                                  [v0_min  (km/s)]
  33.17                                  [vd_min  (km/s)]
 1.3272                                  [AV_min  (mag)]
 0.0000                                  [YAV_min (mag)]

# j     x_j(%)      Mini_j(%)     Mcor_j(%)     age_j(yr)     Z_j      (L/M)_j    YAV?  Mstars   component_j        a/Fe...       SSP_chi2r SSP_adev(%)   SSP_AV   SSP_x(%)
  1      2.8132     6.2009E-03    1.2368E-02    1.000000E+06  0.00010  8.160E-03    0   1.0000   age020_m22            0.0000     2.2419E+03    36.5353   4.0000    90.2429
  2      7.7460     2.9276E-03    5.8392E-03    3.160000E+06  0.00010  4.759E-02    0   1.0000   age045_m22            0.0000     2.6707E+02     9.6042   3.6231    96.9681
  3      6.5702     6.1167E-03    1.1690E-02    5.010000E+06  0.00010  1.932E-02    0   0.9582   age055_m22            0.0000     4.2218E+02    16.1177   4.0000    86.2145
  4      0.0000     0.0000E+00    0.0000E+00    6.610000E+06  0.00010  9.973E-03    0   0.9297   age061_m22            0.0000     2.1678E+03    36.1771   4.0000    92.7331
  5      0.3707     8.6707E-04    1.5617E-03    8.710000E+06  0.00010  7.690E-03    0   0.9030   age067_m22            0.0000     2.1119E+03    35.8834   4.0000    93.1653
  6      0.0000     0.0000E+00    0.0000E+00    1.000000E+07  0.00010  6.375E-03    0   0.8902   age070_m22            0.0000     2.0862E+03    36.0448   4.0000    93.3218
  7      0.0000     0.0000E+00    0.0000E+00    1.445000E+07  0.00010  4.874E-03    0   0.8589   age078_m22            0.0000     1.6559E+03    31.7023   4.0000    95.9915
  8      0.0000     0.0000E+00    0.0000E+00    2.512000E+07  0.00010  4.103E-03    0   0.8174   age090_m22            0.0000     9.5478E+02    22.1523   4.0000   100.4178
  9      0.0000     0.0000E+00    0.0000E+00    4.000000E+07  0.00010  3.654E-03    0   0.7830   age104_m22            0.0000     6.9247E+02    15.4445   4.0000   102.3677
 10      0.0000     0.0000E+00    0.0000E+00    5.500000E+07  0.00010  3.093E-03    0   0.7597   age110_m22            0.0000     6.2056E+02    13.5327   4.0000   102.5399
 11      0.0000     0.0000E+00    0.0000E+00    1.015200E+08  0.00010  2.431E-03    0   0.7138   age116_m22            0.0000     5.4553E+02     8.6850   4.0000   101.1922
 12      0.0000     0.0000E+00    0.0000E+00    1.609000E+08  0.00010  1.319E-03    0   0.6775   age120_m22            0.0000     5.1144E+02     8.7170   3.7273   100.4372
 13      0.0000     0.0000E+00    0.0000E+00    2.861200E+08  0.00010  1.075E-03    0   0.6412   age125_m22            0.0000     8.0555E+02     9.5656   3.7120   103.0188
 14      0.0000     0.0000E+00    0.0000E+00    5.088000E+08  0.00010  7.183E-04    0   0.6083   age130_m22            0.0000     8.9677E+02    10.5170   3.4405   104.6078
 15      0.0000     0.0000E+00    0.0000E+00    9.047900E+08  0.00010  4.524E-04    0   0.5785   age135_m22            0.0000     8.9567E+02    10.5404   3.2366   105.8479
 16      0.0000     0.0000E+00    0.0000E+00    1.278050E+09  0.00010  3.018E-04    0   0.5588   age138_m22            0.0000     5.7457E+02     8.2528   2.7274   104.6213
 17      0.0000     0.0000E+00    0.0000E+00    1.434000E+09  0.00010  2.691E-04    0   0.5532   age139_m22            0.0000     5.1297E+02     7.8451   2.5780   104.1444
 18      0.0000     0.0000E+00    0.0000E+00    2.500000E+09  0.00010  1.582E-04    0   0.5296   age150_m22            0.0000     4.8917E+02     7.7983   2.5004   104.9703
 19      0.0000     0.0000E+00    0.0000E+00    4.250000E+09  0.00010  1.007E-04    0   0.5110   age158_m22            0.0000     3.6977E+02     7.1464   2.3674   103.6778
 20      0.0000     0.0000E+00    0.0000E+00    6.250000E+09  0.00010  6.869E-05    0   0.4985   age166_m22            0.0000     2.7340E+02     6.8346   2.3268   101.2949
 21      0.0000     0.0000E+00    0.0000E+00    7.500000E+09  0.00010  5.873E-05    0   0.4931   age171_m22            0.0000     2.6638E+02     7.0193   2.3268   100.8081
 22      0.0000     0.0000E+00    0.0000E+00    1.000000E+10  0.00010  4.481E-05    0   0.4854   age181_m22            0.0000     2.5953E+02     6.9057   2.2838   100.4469
 23      0.0000     0.0000E+00    0.0000E+00    1.300000E+10  0.00010  3.489E-05    0   0.4791   age193_m22            0.0000     2.4448E+02     6.7146   2.2217    99.9193
 24      0.0000     0.0000E+00    0.0000E+00    1.500000E+10  0.00010  3.035E-05    0   0.4766   age201_m22            0.0000     2.3604E+02     6.6367   2.1819    99.7655
 25      0.0000     0.0000E+00    0.0000E+00    1.800000E+10  0.00010  2.510E-05    0   0.4735   age213_m22            0.0000     2.1745E+02     6.4947   2.1130    99.2447
 26      2.3297     4.9543E-03    9.8816E-03    1.000000E+06  0.00040  8.458E-03    0   1.0000   age020_m32            0.0000     2.2449E+03    36.9154   4.0000    90.8118
 27      0.0000     0.0000E+00    0.0000E+00    3.160000E+06  0.00040  3.973E-02    0   1.0000   age045_m32            0.0000     8.5795E+02    19.8236   4.0000    99.9535
 28      0.0000     0.0000E+00    0.0000E+00    5.010000E+06  0.00040  1.935E-02    0   0.9532   age055_m32            0.0000     1.3608E+03    26.0525   4.0000    95.5024
 29      0.0000     0.0000E+00    0.0000E+00    6.610000E+06  0.00040  1.204E-02    0   0.9243   age061_m32            0.0000     1.8436E+03    32.8615   4.0000    94.6167
 30      0.0000     0.0000E+00    0.0000E+00    8.710000E+06  0.00040  9.433E-03    0   0.9001   age067_m32            0.0000     1.7393E+03    32.0615   4.0000    95.4775
 31      0.0000     0.0000E+00    0.0000E+00    1.000000E+07  0.00040  8.053E-03    0   0.8877   age070_m32            0.0000     1.6642E+03    31.2257   4.0000    95.8548
 32      0.0000     0.0000E+00    0.0000E+00    1.445000E+07  0.00040  7.027E-03    0   0.8578   age078_m32            0.0000     8.9032E+02    19.3009   4.0000    98.4788
 33      0.0000     0.0000E+00    0.0000E+00    2.512000E+07  0.00040  4.707E-03    0   0.8166   age090_m32            0.0000     5.8683E+02    12.6183   4.0000    99.5791
 34      0.0000     0.0000E+00    0.0000E+00    4.000000E+07  0.00040  3.714E-03    0   0.7827   age104_m32            0.0000     4.9058E+02     9.2193   4.0000   100.2565
 35      0.0000     0.0000E+00    0.0000E+00    5.500000E+07  0.00040  2.982E-03    0   0.7593   age110_m32            0.0000     4.8839E+02     8.7795   4.0000   100.3638
 36      0.0000     0.0000E+00    0.0000E+00    1.015200E+08  0.00040  2.188E-03    0   0.7143   age116_m32            0.0000     5.9798E+02     9.0538   3.9763   100.1378
 37      0.0000     0.0000E+00    0.0000E+00    1.609000E+08  0.00040  1.690E-03    0   0.6856   age120_m32            0.0000     7.1988E+02     9.1349   3.7332   102.4300
 38      0.0000     0.0000E+00    0.0000E+00    2.861200E+08  0.00040  1.152E-03    0   0.6509   age125_m32            0.0000     8.2428E+02     9.7357   3.4523   104.0450
 39      0.0000     0.0000E+00    0.0000E+00    5.088000E+08  0.00040  7.331E-04    0   0.6182   age130_m32            0.0000     8.5150E+02    10.2978   3.2556   104.8584
 40      0.0000     0.0000E+00    0.0000E+00    9.047900E+08  0.00040  3.960E-04    0   0.5890   age135_m32            0.0000     5.7976E+02     8.5062   2.7982   104.0252
 41      0.0000     0.0000E+00    0.0000E+00    1.278050E+09  0.00040  2.854E-04    0   0.5687   age138_m32            0.0000     5.2387E+02     7.8767   2.5557   105.9439
 42      0.0000     0.0000E+00    0.0000E+00    1.434000E+09  0.00040  2.531E-04    0   0.5632   age139_m32            0.0000     5.1394E+02     7.8256   2.4981   105.8727
 43      0.0000     0.0000E+00    0.0000E+00    2.500000E+09  0.00040  1.488E-04    0   0.5386   age150_m32            0.0000     4.1154E+02     7.1487   2.2418   104.2479
 44      0.0000     0.0000E+00    0.0000E+00    4.250000E+09  0.00040  9.082E-05    0   0.5199   age158_m32            0.0000     2.5206E+02     6.2246   2.1641   101.4888
 45      1.4936     4.2226E-01    4.2751E-01    6.250000E+09  0.00040  6.362E-05    0   0.5076   age166_m32            0.0000     1.7465E+02     6.3523   2.1573    98.6423
 46      0.5272     1.7930E-01    1.7977E-01    7.500000E+09  0.00040  5.289E-05    0   0.5027   age171_m32            0.0000     1.5725E+02     6.2084   2.1176    97.4723
 47      0.0000     0.0000E+00    0.0000E+00    1.000000E+10  0.00040  3.972E-05    0   0.4948   age181_m32            0.0000     1.4117E+02     5.9133   2.0436    96.1572
 48      0.0000     0.0000E+00    0.0000E+00    1.300000E+10  0.00040  3.283E-05    0   0.4870   age193_m32            0.0000     1.7119E+02     5.6806   1.9815    98.6603
 49      0.0000     0.0000E+00    0.0000E+00    1.500000E+10  0.00040  2.925E-05    0   0.4854   age201_m32            0.0000     1.9604E+02     5.6732   1.9541   100.1146
 50      0.0000     0.0000E+00    0.0000E+00    1.800000E+10  0.00040  2.469E-05    0   0.4819   age213_m32            0.0000     2.0376E+02     5.5992   1.9061   100.5769
 51      0.0000     0.0000E+00    0.0000E+00    1.000000E+06  0.00400  1.114E-02    0   1.0000   age020_m42            0.0000     2.1011E+03    35.2561   4.0000    91.2556
 52      0.0000     0.0000E+00    0.0000E+00    3.160000E+06  0.00400  4.073E-02    0   0.9999   age045_m42            0.0000     5.0123E+02    12.8609   4.0000    99.7057
 53      0.0000     0.0000E+00    0.0000E+00    5.010000E+06  0.00400  2.534E-02    0   0.9488   age055_m42            0.0000     1.0379E+03    22.3738   4.0000    97.1790
 54      0.0000     0.0000E+00    0.0000E+00    6.610000E+06  0.00400  2.583E-02    0   0.9220   age061_m42            0.0000     4.3799E+02     9.4769   4.0000    98.6197
 55      0.0000     0.0000E+00    0.0000E+00    8.710000E+06  0.00400  1.706E-02    0   0.8983   age067_m42            0.0000     3.9261E+02     9.2242   4.0000    95.7863
 56      0.0000     0.0000E+00    0.0000E+00    1.000000E+07  0.00400  1.271E-02    0   0.8862   age070_m42            0.0000     4.3176E+02    10.1788   4.0000    94.7089
 57      0.0000     0.0000E+00    0.0000E+00    1.445000E+07  0.00400  7.666E-03    0   0.8571   age078_m42            0.0000     7.1766E+02    14.2046   4.0000    95.4256
 58      0.0000     0.0000E+00    0.0000E+00    2.512000E+07  0.00400  5.070E-03    0   0.8174   age090_m42            0.0000     3.5998E+02    10.7001   4.0000    94.7223
 59      0.0000     0.0000E+00    0.0000E+00    4.000000E+07  0.00400  3.505E-03    0   0.7851   age104_m42            0.0000     2.9125E+02    10.4617   3.7931    95.3776
 60      0.0000     0.0000E+00    0.0000E+00    5.500000E+07  0.00400  3.059E-03    0   0.7629   age110_m42            0.0000     3.7428E+02     7.9983   3.7789    99.0107
 61      0.0000     0.0000E+00    0.0000E+00    1.015200E+08  0.00400  2.268E-03    0   0.7207   age116_m42            0.0000     6.3047E+02     8.2637   3.6209   103.4441
 62      0.0000     0.0000E+00    0.0000E+00    1.609000E+08  0.00400  1.720E-03    0   0.6930   age120_m42            0.0000     6.5050E+02     8.4511   3.4487   105.0996
 63      0.0000     0.0000E+00    0.0000E+00    2.861200E+08  0.00400  1.079E-03    0   0.6613   age125_m42            0.0000     6.4532E+02     8.6435   3.0672   105.4257
 64      0.0000     0.0000E+00    0.0000E+00    5.088000E+08  0.00400  6.261E-04    0   0.6313   age130_m42            0.0000     7.0322E+02     8.7976   2.8818   108.4186
 65      0.0000     0.0000E+00    0.0000E+00    9.047900E+08  0.00400  3.535E-04    0   0.6024   age135_m42            0.0000     4.8475E+02     7.2642   2.4848   109.1516
 66      0.0000     0.0000E+00    0.0000E+00    1.278050E+09  0.00400  2.677E-04    0   0.5837   age138_m42            0.0000     1.9406E+02     6.2499   1.7133   107.0125
 67      0.0000     0.0000E+00    0.0000E+00    1.434000E+09  0.00400  1.910E-04    0   0.5716   age139_m42            0.0000     2.5858E+02     6.2552   1.9010   107.8323
 68      0.0000     0.0000E+00    0.0000E+00    2.500000E+09  0.00400  9.818E-05    0   0.5463   age150_m42            0.0000     9.3683E+01     4.5641   1.6289   103.2423
 69      0.0000     0.0000E+00    0.0000E+00    4.250000E+09  0.00400  5.491E-05    0   0.5269   age158_m42            0.0000     4.6387E+01     3.6882   1.5137   100.5424
 70      0.0000     0.0000E+00    0.0000E+00    6.250000E+09  0.00400  3.857E-05    0   0.5151   age166_m42            0.0000     3.1060E+01     3.9200   1.3666    99.2423
 71      0.0015     8.2653E-04    8.4241E-04    7.500000E+09  0.00400  3.243E-05    0   0.5110   age171_m42            0.0000     2.7438E+01     4.2636   1.2712    98.6909
 72      0.0000     0.0000E+00    0.0000E+00    1.000000E+10  0.00400  2.424E-05    0   0.5028   age181_m42            0.0000     2.5618E+01     4.6978   1.1738    98.0491
 73      0.0164     1.5711E-02    1.5440E-02    1.300000E+10  0.00400  1.883E-05    0   0.4927   age193_m42            0.0000     2.5901E+01     5.0294   1.1236    97.7519
 74      0.0000     0.0000E+00    0.0000E+00    1.500000E+10  0.00400  1.685E-05    0   0.4919   age201_m42            0.0000     2.5102E+01     4.8897   1.1318    97.7654
 75      0.0000     0.0000E+00    0.0000E+00    1.800000E+10  0.00400  1.452E-05    0   0.4874   age213_m42            0.0000     2.4087E+01     4.6716   1.1529    98.0444
 76      0.0000     0.0000E+00    0.0000E+00    1.000000E+06  0.00800  1.286E-02    0   1.0000   age020_m52            0.0000     1.9659E+03    34.5745   4.0000    92.9094
 77      0.0000     0.0000E+00    0.0000E+00    3.160000E+06  0.00800  3.147E-02    0   0.9966   age045_m52            0.0000     1.8446E+03    32.7858   4.0000    94.3717
 78      0.0000     0.0000E+00    0.0000E+00    5.010000E+06  0.00800  2.664E-02    0   0.9443   age055_m52            0.0000     1.2454E+03    25.1008   4.0000    96.9474
 79      0.0000     0.0000E+00    0.0000E+00    6.610000E+06  0.00800  2.151E-02    0   0.9177   age061_m52            0.0000     2.7225E+02    12.5132   3.8747    93.0127
 80      0.0000     0.0000E+00    0.0000E+00    8.710000E+06  0.00800  1.628E-02    0   0.8948   age067_m52            0.0000     3.8897E+02     9.5816   4.0000    95.9770
 81      0.0000     0.0000E+00    0.0000E+00    1.000000E+07  0.00800  1.215E-02    0   0.8827   age070_m52            0.0000     6.1162E+02    12.1871   4.0000    97.5670
 82      0.0000     0.0000E+00    0.0000E+00    1.445000E+07  0.00800  8.739E-03    0   0.8552   age078_m52            0.0000     6.2810E+02    12.8785   4.0000    99.0150
 83      0.0000     0.0000E+00    0.0000E+00    2.512000E+07  0.00800  5.676E-03    0   0.8162   age090_m52            0.0000     4.4118E+02     8.7833   4.0000    98.8533
 84      0.0000     0.0000E+00    0.0000E+00    4.000000E+07  0.00800  3.939E-03    0   0.7841   age104_m52            0.0000     4.3065E+02     9.3561   4.0000    98.4464
 85      0.0000     0.0000E+00    0.0000E+00    5.500000E+07  0.00800  3.155E-03    0   0.7627   age110_m52            0.0000     4.6994E+02     8.8311   3.9593    99.7172
 86      0.0000     0.0000E+00    0.0000E+00    1.015200E+08  0.00800  2.206E-03    0   0.7226   age116_m52            0.0000     5.5456E+02     8.1225   3.7044   103.5845
 87      0.0000     0.0000E+00    0.0000E+00    1.609000E+08  0.00800  1.596E-03    0   0.6963   age120_m52            0.0000     5.9576E+02     8.1046   3.4560   105.2436
 88      0.0000     0.0000E+00    0.0000E+00    2.861200E+08  0.00800  1.002E-03    0   0.6665   age125_m52            0.0000     7.1861E+02     9.4956   3.0805   107.7482
 89      0.0000     0.0000E+00    0.0000E+00    5.088000E+08  0.00800  5.759E-04    0   0.6377   age130_m52            0.0000     7.1159E+02    10.3420   2.6762   112.0507
 90      0.0000     0.0000E+00    0.0000E+00    9.047900E+08  0.00800  2.972E-04    0   0.6086   age135_m52            0.0000     4.2515E+02     9.3230   2.0998   111.1080
 91      0.0000     0.0000E+00    0.0000E+00    1.278050E+09  0.00800  2.242E-04    0   0.5907   age138_m52            0.0000     1.6969E+02     7.0108   1.4982   109.8400
 92      0.0000     0.0000E+00    0.0000E+00    1.434000E+09  0.00800  1.645E-04    0   0.5787   age139_m52            0.0000     1.6370E+02     6.2568   1.6712   109.3056
 93      0.0000     0.0000E+00    0.0000E+00    2.500000E+09  0.00800  7.723E-05    0   0.5519   age150_m52            0.0000     6.3897E+01     5.1348   1.3378   105.6683
 94      0.2508     1.0867E-01    1.1531E-01    4.250000E+09  0.00800  4.151E-05    0   0.5320   age158_m52            0.0000     4.0519E+01     4.6296   1.2794   103.0565
 95      0.9920     5.9280E-01    6.1448E-01    6.250000E+09  0.00800  3.010E-05    0   0.5197   age166_m52            0.0000     2.9895E+01     5.1382   1.0614   101.6637
 96      0.0000     0.0000E+00    0.0000E+00    7.500000E+09  0.00800  2.467E-05    0   0.5139   age171_m52            0.0000     3.0321E+01     5.4148   1.0103   101.2827
 97      7.4677     7.2136E+00    7.2717E+00    1.000000E+10  0.00800  1.862E-05    0   0.5054   age181_m52            0.0000     3.7735E+01     6.3901   0.8508   100.9699
 98     23.7857     2.9855E+01    2.9702E+01    1.300000E+10  0.00800  1.433E-05    0   0.4988   age193_m52            0.0000     5.0197E+01     7.3159   0.7286   101.7651
 99     24.7934     3.5848E+01    3.5292E+01    1.500000E+10  0.00800  1.244E-05    0   0.4936   age201_m52            0.0000     5.7269E+01     7.6824   0.6886   102.2917
100      0.0000     0.0000E+00    0.0000E+00    1.800000E+10  0.00800  1.070E-05    0   0.4888   age213_m52            0.0000     6.3079E+01     8.0357   0.6433   102.1884
101      0.0000     0.0000E+00    0.0000E+00    1.000000E+06  0.02000  1.989E-02    0   1.0000   age020_m62            0.0000     2.0397E+03    34.3054   4.0000    92.0084
102      0.0000     0.0000E+00    0.0000E+00    3.160000E+06  0.02000  3.772E-02    0   0.9858   age045_m62            0.0000     1.8024E+03    31.3280   4.0000    94.1306
103      0.0000     0.0000E+00    0.0000E+00    5.010000E+06  0.02000  3.227E-02    0   0.9342   age055_m62            0.0000     8.4829E+02    18.7499   4.0000    99.2185
104      0.0000     0.0000E+00    0.0000E+00    6.610000E+06  0.02000  2.387E-02    0   0.9090   age061_m62            0.0000     7.2725E+02    13.7495   4.0000    97.2154
105      0.0000     0.0000E+00    0.0000E+00    8.710000E+06  0.02000  1.102E-02    0   0.8861   age067_m62            0.0000     7.9300E+02    15.1702   4.0000    90.9664
106      0.0000     0.0000E+00    0.0000E+00    1.000000E+07  0.02000  1.011E-02    0   0.8751   age070_m62            0.0000     6.2144E+02    12.9738   4.0000    92.8762
107      0.0000     0.0000E+00    0.0000E+00    1.445000E+07  0.02000  7.331E-03    0   0.8472   age078_m62            0.0000     5.1668E+02    11.2773   4.0000    93.9528
108      0.0000     0.0000E+00    0.0000E+00    2.512000E+07  0.02000  4.206E-03    0   0.8099   age090_m62            0.0000     4.8884E+02    11.6722   4.0000    92.5789
109      0.0000     0.0000E+00    0.0000E+00    4.000000E+07  0.02000  3.373E-03    0   0.7799   age104_m62            0.0000     3.7191E+02    10.5444   4.0000    96.7886
110      0.0000     0.0000E+00    0.0000E+00    5.500000E+07  0.02000  2.747E-03    0   0.7595   age110_m62            0.0000     4.3682E+02     8.9183   3.8899    99.6873
111      0.0000     0.0000E+00    0.0000E+00    1.015200E+08  0.02000  1.878E-03    0   0.7221   age116_m62            0.0000     6.1657E+02     8.3580   3.6872   103.9508
112      0.0000     0.0000E+00    0.0000E+00    1.609000E+08  0.02000  1.378E-03    0   0.6978   age120_m62            0.0000     7.3483E+02     8.6842   3.4870   106.3177
113      0.0000     0.0000E+00    0.0000E+00    2.861200E+08  0.02000  8.869E-04    0   0.6700   age125_m62            0.0000     9.1367E+02    10.1156   3.0540   110.4703
114      0.0000     0.0000E+00    0.0000E+00    5.088000E+08  0.02000  4.834E-04    0   0.6430   age130_m62            0.0000     7.6900E+02    10.7371   2.5360   113.4540
115      0.0000     0.0000E+00    0.0000E+00    9.047900E+08  0.02000  2.312E-04    0   0.6152   age135_m62            0.0000     3.7888E+02     8.4599   1.9230   113.1176
116      0.0000     0.0000E+00    0.0000E+00    1.278050E+09  0.02000  1.387E-04    0   0.5927   age138_m62            0.0000     1.6389E+02     6.3719   1.5507   108.9218
117      0.0000     0.0000E+00    0.0000E+00    1.434000E+09  0.02000  1.168E-04    0   0.5865   age139_m62            0.0000     1.3067E+02     5.9640   1.5278   107.3449
118      0.0000     0.0000E+00    0.0000E+00    2.500000E+09  0.02000  5.505E-05    0   0.5610   age150_m62            0.0000     5.5922E+01     5.8270   1.1360   104.4985
119      0.0000     0.0000E+00    0.0000E+00    4.250000E+09  0.02000  3.070E-05    0   0.5407   age158_m62            0.0000     6.5008E+01     7.7127   0.7774   104.5642
120      3.5240     3.0125E+00    3.1708E+00    6.250000E+09  0.02000  2.104E-05    0   0.5277   age166_m62            0.0000     8.2085E+01     8.7196   0.6134   105.1324
121      3.2846     3.3378E+00    3.4771E+00    7.500000E+09  0.02000  1.770E-05    0   0.5223   age171_m62            0.0000     9.4566E+01     9.3630   0.5044   105.6073
122     10.1747     1.4110E+01    1.4412E+01    1.000000E+10  0.02000  1.297E-05    0   0.5121   age181_m62            0.0000     1.2447E+02    10.6784   0.3020   106.3354
123      1.5743     2.9218E+00    2.9413E+00    1.300000E+10  0.02000  9.691E-06    0   0.5047   age193_m62            0.0000     1.4771E+02    11.6033   0.1868   106.8703
124      0.0507     1.0907E-01    1.0875E-01    1.500000E+10  0.02000  8.360E-06    0   0.4999   age201_m62            0.0000     1.6973E+02    12.4368   0.0844   107.3474
125      0.8320     2.1654E+00    2.1362E+00    1.800000E+10  0.02000  6.911E-06    0   0.4946   age213_m62            0.0000     1.9894E+02    13.4877  -0.0317   107.9595
126      0.0000     0.0000E+00    0.0000E+00    1.000000E+06  0.05000  2.651E-02    0   0.9998   age020_m72            0.0000     2.0140E+03    33.9198   4.0000    93.0959
127      0.0000     0.0000E+00    0.0000E+00    3.160000E+06  0.05000  4.817E-02    0   0.9577   age045_m72            0.0000     1.4516E+03    27.3192   4.0000    97.3557
128      0.0000     0.0000E+00    0.0000E+00    5.010000E+06  0.05000  3.101E-02    0   0.9147   age055_m72            0.0000     9.8525E+02    19.4076   4.0000    98.2427
129      0.0000     0.0000E+00    0.0000E+00    6.610000E+06  0.05000  1.472E-02    0   0.8877   age061_m72            0.0000     8.3707E+02    13.5687   4.0000    93.8938
130      0.0000     0.0000E+00    0.0000E+00    8.710000E+06  0.05000  1.050E-02    0   0.8638   age067_m72            0.0000     1.0559E+03    18.8326   4.0000    96.6383
131      0.0000     0.0000E+00    0.0000E+00    1.000000E+07  0.05000  8.954E-03    0   0.8524   age070_m72            0.0000     1.2450E+03    24.3623   4.0000    98.0908
132      0.0000     0.0000E+00    0.0000E+00    1.445000E+07  0.05000  6.392E-03    0   0.8262   age078_m72            0.0000     1.1085E+03    22.9539   4.0000    98.8159
133      0.0000     0.0000E+00    0.0000E+00    2.512000E+07  0.05000  4.207E-03    0   0.7902   age090_m72            0.0000     6.2355E+02    14.2935   4.0000   100.2931
134      0.0000     0.0000E+00    0.0000E+00    4.000000E+07  0.05000  3.198E-03    0   0.7618   age104_m72            0.0000     4.8427E+02     7.6866   4.0000   101.1268
135      0.0000     0.0000E+00    0.0000E+00    5.500000E+07  0.05000  2.593E-03    0   0.7432   age110_m72            0.0000     5.5080E+02     8.0728   3.9712   101.7552
136      0.0000     0.0000E+00    0.0000E+00    1.015200E+08  0.05000  1.716E-03    0   0.7092   age116_m72            0.0000     6.7948E+02     8.3785   3.7501   104.0887
137      0.0000     0.0000E+00    0.0000E+00    1.609000E+08  0.05000  1.218E-03    0   0.6876   age120_m72            0.0000     7.9559E+02     8.9926   3.4309   106.8558
138      0.0000     0.0000E+00    0.0000E+00    2.861200E+08  0.05000  7.047E-04    0   0.6618   age125_m72            0.0000     8.4798E+02    10.6015   2.7923   111.2780
139      0.0000     0.0000E+00    0.0000E+00    5.088000E+08  0.05000  3.590E-04    0   0.6356   age130_m72            0.0000     6.1862E+02    10.8512   2.1331   114.6125
140      0.0000     0.0000E+00    0.0000E+00    9.047900E+08  0.05000  1.484E-04    0   0.6088   age135_m72            0.0000     1.8711E+02     8.1876   1.3917   108.1946
141      0.0000     0.0000E+00    0.0000E+00    1.278050E+09  0.05000  9.435E-05    0   0.5924   age138_m72            0.0000     1.0529E+02     8.4545   0.9451   105.5652
142      0.0000     0.0000E+00    0.0000E+00    1.434000E+09  0.05000  7.827E-05    0   0.5847   age139_m72            0.0000     8.9394E+01     7.9178   0.9742   104.9126
143      0.0000     0.0000E+00    0.0000E+00    2.500000E+09  0.05000  3.759E-05    0   0.5583   age150_m72            0.0000     8.5150E+01     8.8625   0.6221   104.3027
144      0.0888     8.6694E-02    9.2925E-02    4.250000E+09  0.05000  1.842E-05    0   0.5374   age158_m72            0.0000     1.2199E+02    10.9226   0.2345   103.9828
145      0.0000     0.0000E+00    0.0000E+00    6.250000E+09  0.05000  1.207E-05    0   0.5242   age166_m72            0.0000     1.7198E+02    13.1962  -0.0995   104.3337
146      0.0000     0.0000E+00    0.0000E+00    7.500000E+09  0.05000  9.993E-06    0   0.5183   age171_m72            0.0000     1.8065E+02    13.6086  -0.1631   104.4371
147      0.0000     0.0000E+00    0.0000E+00    1.000000E+10  0.05000  7.291E-06    0   0.5081   age181_m72            0.0000     2.2587E+02    15.4549  -0.3715   105.0599
148      0.0000     0.0000E+00    0.0000E+00    1.300000E+10  0.05000  5.316E-06    0   0.5018   age193_m72            0.0000     3.0210E+02    18.1401  -0.6869   106.2036
149      0.0000     0.0000E+00    0.0000E+00    1.500000E+10  0.05000  4.497E-06    0   0.4972   age201_m72            0.0000     3.4416E+02    19.4887  -0.8290   107.1739
150      0.0000     0.0000E+00    0.0000E+00    1.800000E+10  0.05000  3.739E-06    0   0.4924   age213_m72            0.0000     3.9927E+02    20.8380  -1.0000   108.0021


## Synthesis Results - Average & Chains ##

# j      x_j: min, <> & last-chain-values for 1 ...  7 chains
  1      2.8132      2.9475      2.8510      3.0135      2.8824      2.9513      3.1380      2.9621      3.0201
  2      7.7460      7.6181      7.6884      7.6440      7.4888      7.8285      7.8459      7.8888      7.7784
  3      6.5702      5.1540      5.2459      5.5576      4.9936      5.1273      5.2770      5.2718      5.0999
  4      0.0000      0.1489      0.1555      0.0000      0.1538      0.2535      0.1250      0.1880      0.2292
  5      0.3707      0.2073      0.4994      0.2695      0.4357      0.2344      0.2928      0.1554      0.3972
  6      0.0000      0.1160      0.3453      0.1086      0.2434      0.0000      0.1975      0.0000      0.1644
  7      0.0000      0.0287      0.0000      0.1023      0.0000      0.0706      0.0000      0.0533      0.0000
  8      0.0000      0.0130      0.0000      0.1145      0.0000      0.0000      0.0000      0.0000      0.0000
  9      0.0000      0.0095      0.0000      0.0000      0.0000      0.0000      0.0000      0.0000      0.0000
 10      0.0000      0.0074      0.0000      0.0000      0.0000      0.0000      0.0000      0.0000      0.0000
 11      0.0000      0.0064      0.0517      0.0000      0.0000      0.0000      0.0000      0.0000      0.0000
 12      0.0000      0.0040      0.0000      0.0000      0.0000      0.0000      0.0000      0.0000      0.0000
 13      0.0000      0.0020      0.0000      0.0000      0.0000      0.0000      0.0000      0.0000      0.0000
 14      0.0000      0.0021      0.0000      0.0000      0.0000      0.0000      0.0000      0.0000      0.0000
 15      0.0000      0.0022      0.0000      0.0000      0.0000      0.0000      0.0000      0.0000      0.0000
 16      0.0000      0.0041      0.0000      0.0000      0.0000      0.0000      0.0000      0.0000      0.0000
 17      0.0000      0.0057      0.0000      0.0000      0.0000      0.0000      0.0000      0.0000      0.0000
 18      0.0000      0.0093      0.0000      0.0344      0.0000      0.0000      0.0080      0.0000      0.0000
 19      0.0000      0.0195      0.0000      0.0000      0.0321      0.0000      0.0000      0.0000      0.0000
 20      0.0000      0.0368      0.0000      0.0000      0.0000      0.0000      0.0000      0.0000      0.0000
 21      0.0000      0.0390      0.1051      0.0000      0.0000      0.0000      0.0242      0.0000      0.0000
 22      0.0000      0.0531      0.2022      0.1034      0.0000      0.0000      0.0000      0.0000      0.0000
 23      0.0000      0.0483      0.0000      0.0000      0.1672      0.0332      0.2959      0.1691      0.0000
 24      0.0000      0.0465      0.0000      0.0000      0.0000      0.0000      0.0074      0.0000      0.0000
 25      0.0000      0.0584      0.0000      0.2482      0.0000      0.0507      0.1074      0.1464      0.0000
 26      2.3297      2.2710      2.2100      2.4548      2.2387      2.1959      2.0638      2.3645      2.2321
 27      0.0000      0.0146      0.0000      0.0000      0.0000      0.0000      0.0000      0.0000      0.0000
 28      0.0000      0.0686      0.0000      0.0000      0.0000      0.0000      0.0000      0.0000      0.0000
 29      0.0000      0.0299      0.0000      0.0000      0.0000      0.0000      0.0000      0.0000      0.0071
 30      0.0000      0.0316      0.0000      0.0000      0.1170      0.1230      0.0000      0.0000      0.0000
 31      0.0000      0.0507      0.0351      0.0000      0.0000      0.1352      0.0000      0.0803      0.0000
 32      0.0000      0.0148      0.0000      0.0000      0.0000      0.0000      0.0000      0.0940      0.0000
 33      0.0000      0.0079      0.0000      0.0000      0.0000      0.0000      0.0000      0.0000      0.0000
 34      0.0000      0.0070      0.0000      0.0000      0.0000      0.0000      0.0000      0.0000      0.0000
 35      0.0000      0.0059      0.0025      0.0000      0.0000      0.0000      0.0000      0.0000      0.0000
 36      0.0000      0.0027      0.0000      0.0000      0.0000      0.0000      0.0000      0.0000      0.0000
 37      0.0000      0.0028      0.0000      0.0000      0.0000      0.0000      0.0000      0.0000      0.0000
 38      0.0000      0.0027      0.0000      0.0000      0.0000      0.0000      0.0000      0.0000      0.0133
 39      0.0000      0.0020      0.0000      0.0000      0.0000      0.0000      0.0000      0.0000      0.0000
 40      0.0000      0.0059      0.0000      0.0000      0.0000      0.0000      0.0000      0.0000      0.0000
 41      0.0000      0.0075      0.0000      0.0000      0.0000      0.0000      0.0000      0.0000      0.0000
 42      0.0000      0.0076      0.0000      0.0025      0.0000      0.0000      0.0000      0.0000      0.0000
 43      0.0000      0.0224      0.0000      0.0219      0.0000      0.0000      0.0000      0.0127      0.0000
 44      0.0000      0.0920      0.0000      0.0657      0.0000      0.0000      0.0000      0.0000      0.0643
 45      1.4936      0.5703      1.0646      0.7694      0.9564      1.2394      1.0423      0.5240      1.4934
 46      0.5272      0.5195      0.0581      0.8310      0.2563      0.5265      0.9041      0.9137      0.8476
 47      0.0000      0.2022      0.1312      0.0965      0.6324      0.1479      0.1794      0.2851      0.2220
 48      0.0000      0.0789      0.1888      0.0000      0.0000      0.0000      0.0000      0.2244      0.0000
 49      0.0000      0.0602      0.0000      0.0000      0.0251      0.1812      0.2515      0.0459      0.0000
 50      0.0000      0.0549      0.0000      0.0000      0.0000      0.0000      0.0000      0.1055      0.0000
 51      0.0000      0.0510      0.0807      0.0000      0.0000      0.0978      0.1323      0.1301      0.1270
 52      0.0000      0.0192      0.0000      0.0000      0.0000      0.0000      0.0000      0.0000      0.0032
 53      0.0000      0.0196      0.0000      0.0000      0.0457      0.0000      0.0000      0.0381      0.0000
 54      0.0000      0.0116      0.0000      0.0000      0.0000      0.0000      0.0000      0.0000      0.0000
 55      0.0000      0.0152      0.0000      0.0000      0.1259      0.0000      0.0000      0.0000      0.0000
 56      0.0000      0.0175      0.0000      0.0000      0.0171      0.0000      0.0000      0.0000      0.0000
 57      0.0000      0.0103      0.0000      0.0000      0.0000      0.0581      0.0000      0.0000      0.0000
 58      0.0000      0.0126      0.0000      0.0000      0.0000      0.0000      0.0000      0.0000      0.0000
 59      0.0000      0.0076      0.0000      0.0071      0.0000      0.0000      0.0000      0.0000      0.0000
 60      0.0000      0.0045      0.0000      0.0000      0.0000      0.0000      0.0000      0.0000      0.0000
 61      0.0000      0.0023      0.0000      0.0000      0.0000      0.0000      0.0000      0.0000      0.0000
 62      0.0000      0.0030      0.0000      0.0000      0.0000      0.0000      0.0000      0.0000      0.0332
 63      0.0000      0.0031      0.0000      0.0000      0.0000      0.0000      0.0000      0.0000      0.0000
 64      0.0000      0.0048      0.0000      0.0000      0.0000      0.0000      0.0000      0.0000      0.0000
 65      0.0000      0.0126      0.0000      0.0000      0.0000      0.0000      0.0000      0.0000      0.0000
 66      0.0000      0.0245      0.0000      0.0000      0.0000      0.0000      0.0000      0.0254      0.0000
 67      0.0000      0.0187      0.0000      0.0000      0.0000      0.0000      0.0000      0.0000      0.0000
 68      0.0000      0.0600      0.0000      0.0217      0.2182      0.1120      0.0000      0.0000      0.0000
 69      0.0000      0.1264      0.5825      0.0000      0.2887      0.0538      0.0000      0.0996      0.0000
 70      0.0000      0.0934      0.0961      0.0000      0.0000      0.0000      0.0000      0.0315      0.0000
 71      0.0015      0.0772      0.0427      0.0000      0.0000      0.0000      0.0000      0.0357      0.2625
 72      0.0000      0.0658      0.0000      0.2078      0.0572      0.0199      0.0000      0.0000      0.0413
 73      0.0164      0.0920      0.0000      0.0000      0.0000      0.0000      0.0000      0.0000      0.2902
 74      0.0000      0.0728      0.0142      0.0000      0.0275      0.2026      0.0618      0.0749      0.0000
 75      0.0000      0.0607      0.0000      0.0205      0.0000      0.0000      0.0000      0.0000      0.0000
 76      0.0000      0.1091      0.0000      0.0000      0.1152      0.2100      0.0000      0.0000      0.0000
 77      0.0000      0.0175      0.0000      0.0000      0.0000      0.0374      0.0000      0.0679      0.0000
 78      0.0000      0.0190      0.1520      0.0000      0.0000      0.0000      0.0000      0.0000      0.0000
 79      0.0000      0.0188      0.1019      0.0000      0.0000      0.0000      0.0000      0.0000      0.0000
 80      0.0000      0.0065      0.0000      0.0000      0.0000      0.0000      0.0000      0.0000      0.0000
 81      0.0000      0.0073      0.0000      0.0000      0.0000      0.0000      0.0000      0.0000      0.0000
 82      0.0000      0.0071      0.0000      0.0000      0.0000      0.0000      0.0000      0.0000      0.0000
 83      0.0000      0.0055      0.0000      0.0000      0.0000      0.0000      0.0000      0.0000      0.0000
 84      0.0000      0.0052      0.0000      0.0000      0.0000      0.0000      0.0000      0.0000      0.0000
 85      0.0000      0.0041      0.0000      0.0000      0.0000      0.0000      0.0000      0.0000      0.0000
 86      0.0000      0.0044      0.0000      0.0000      0.0000      0.0000      0.0000      0.0000      0.0000
 87      0.0000      0.0035      0.0000      0.0000      0.0000      0.0000      0.0000      0.0225      0.0000
 88      0.0000      0.0021      0.0000      0.0096      0.0000      0.0000      0.0000      0.0000      0.0000
 89      0.0000      0.0042      0.0000      0.0000      0.0000      0.0000      0.0000      0.0000      0.0000
 90      0.0000      0.0091      0.0000      0.0000      0.0000      0.0000      0.0000      0.0000      0.0000
 91      0.0000      0.0253      0.0273      0.0000      0.0000      0.0000      0.0000      0.0000      0.0000
 92      0.0000      0.0272      0.0000      0.0386      0.0000      0.0000      0.0000      0.0201      0.0187
 93      0.0000      0.1400      0.0961      0.2814      1.0150      0.0109      0.0000      0.0877      0.0010
 94      0.2508      0.3360      1.6875      0.6570      0.5793      1.0773      0.0000      0.3122      0.4724
 95      0.9920      0.5066      0.3354      0.4949      0.8240      0.5884      0.8337      1.1905      0.2466
 96      0.0000      0.3989      0.2474      0.1687      0.3513      0.2457      0.4853      0.9475      0.1753
 97      7.4677     10.5528      9.9612     10.6259     10.1291     10.3691      9.7172      8.9498     10.3816
 98     23.7857     22.3570     22.3240     22.3736     21.9546     23.2972     22.4241     23.0702     23.4405
 99     24.7934     22.6639     22.2924     22.8727     22.9865     22.5682     23.0784     22.9890     22.8225
100      0.0000      0.5625      0.6922      0.5668      1.0273      0.4693      1.3088      0.5100      0.1540
101      0.0000      0.0306      0.0000      0.0000      0.0000      0.0000      0.0000      0.2110      0.0000
102      0.0000      0.0199      0.0248      0.0000      0.0000      0.0000      0.0000      0.0000      0.0000
103      0.0000      0.0130      0.0000      0.0000      0.0000      0.0126      0.0000      0.0000      0.0000
104      0.0000      0.0121      0.0293      0.0206      0.0000      0.0000      0.0000      0.0000      0.0000
105      0.0000      0.0168      0.0000      0.0000      0.0000      0.0000      0.0000      0.0000      0.0000
106      0.0000      0.0125      0.0000      0.0000      0.0000      0.0000      0.0000      0.0000      0.0000
107      0.0000      0.0151      0.0000      0.0000      0.0000      0.0000      0.0000      0.0000      0.0000
108      0.0000      0.0092      0.0024      0.0000      0.0000      0.0000      0.0000      0.0000      0.0000
109      0.0000      0.0038      0.0000      0.0593      0.0000      0.0000      0.0000      0.0000      0.0000
110      0.0000      0.0028      0.0000      0.0000      0.0000      0.0000      0.0000      0.0000      0.0000
111      0.0000      0.0021      0.0000      0.0133      0.0000      0.0000      0.0000      0.0000      0.0000
112      0.0000      0.0025      0.0000      0.0000      0.0000      0.0000      0.0116      0.0000      0.0000
113      0.0000      0.0018      0.0000      0.0000      0.0000      0.0000      0.0000      0.0000      0.0000
114      0.0000      0.0033      0.0000      0.0000      0.0000      0.0000      0.0000      0.0000      0.0000
115      0.0000      0.0118      0.0025      0.0000      0.0000      0.0000      0.0000      0.0000      0.0000
116      0.0000      0.0258      0.0000      0.0000      0.0000      0.0170      0.0000      0.1206      0.0249
117      0.0000      0.0394      0.0000      0.0000      0.0075      0.0000      0.0000      0.0000      0.0000
118      0.0000      0.1272      0.0000      0.0000      0.0000      0.2931      0.0712      0.0000      0.0000
119      0.0000      0.2136      0.0000      0.0342      0.5698      0.0000      0.2012      0.0000      0.0000
120      3.5240      0.5475      1.5397      0.8471      0.5752      0.3783      0.9251      0.2273      0.3892
121      3.2846      2.5773      2.5202      2.7374      2.1309      1.7619      2.6372      2.2573      2.8978
122     10.1747      9.2559      9.5360      8.7349      9.3925      9.3172      9.3915      9.5100      9.3335
123      1.5743      1.4190      1.5004      1.7549      1.2788      1.8614      1.4513      1.5913      1.3179
124      0.0507      0.2624      0.2925      0.3744      0.3321      0.2631      0.0000      0.4080      0.2443
125      0.8320      3.7695      3.6239      3.6018      3.6229      3.6658      3.5760      3.9020      3.5559
126      0.0000      0.0993      0.0000      0.0903      0.3288      0.0124      0.1928      0.0000      0.1968
127      0.0000      0.0128      0.0000      0.0000      0.0000      0.0000      0.0000      0.0000      0.0000
128      0.0000      0.0250      0.0000      0.0000      0.0000      0.0000      0.0824      0.0000      0.0000
129      0.0000      0.0239      0.0000      0.0284      0.0000      0.0017      0.0000      0.0000      0.0000
130      0.0000      0.0149      0.0000      0.0000      0.0000      0.0000      0.0000      0.0000      0.0000
131      0.0000      0.0082      0.0000      0.0000      0.0000      0.0000      0.0000      0.0000      0.0000
132      0.0000      0.0093      0.0000      0.0000      0.0000      0.0000      0.0000      0.0000      0.0000
133      0.0000      0.0058      0.0000      0.0000      0.0000      0.0000      0.0000      0.0000      0.0000
134      0.0000      0.0024      0.0000      0.0000      0.0000      0.0000      0.0000      0.0000      0.0000
135      0.0000      0.0021      0.0000      0.0000      0.0000      0.0000      0.0000      0.0000      0.0000
136      0.0000      0.0024      0.0000      0.0000      0.0000      0.0000      0.0000      0.0000      0.0000
137      0.0000      0.0024      0.0000      0.0000      0.0000      0.0000      0.0000      0.0000      0.0000
138      0.0000      0.0024      0.0000      0.0000      0.0000      0.0000      0.0000      0.0000      0.0000
139      0.0000      0.0045      0.0000      0.0000      0.0000      0.0014      0.0155      0.0004      0.0000
140      0.0000      0.0227      0.0000      0.0000      0.0000      0.0000      0.0000      0.1545      0.0000
141      0.0000      0.0425      0.0000      0.0000      0.0015      0.0000      0.0385      0.0239      0.0662
142      0.0000      0.0535      0.0000      0.0000      0.0000      0.0000      0.0567      0.0000      0.0000
143      0.0000      0.1722      0.1343      0.4771      0.0000      0.2519      0.0873      0.0000      0.1316
144      0.0888      0.2787      0.0000      0.1940      0.0982      0.3596      0.0000      0.2353      0.3401
145      0.0000      0.1098      0.0000      0.0000      0.0000      0.0545      0.0421      0.0000      0.1685
146      0.0000      0.0387      0.0000      0.0000      0.0000      0.0000      0.1601      0.0000      0.0000
147      0.0000      0.0155      0.0000      0.0000      0.0187      0.0000      0.0000      0.0000      0.0000
148      0.0000      0.0168      0.0000      0.0000      0.0000      0.0000      0.0000      0.0000      0.0000
149      0.0000      0.0096      0.0000      0.0000      0.0000      0.0000      0.0000      0.0049      0.0000
150      0.0000      0.0084      0.0000      0.0000      0.0000      0.0000      0.0000      0.0000      0.0000

# j      m_j: min, <> & last-chain-values for 1 ...  7 chains
  1  1.2368E-02  1.2506E-02  1.2178E-02  1.2809E-02  1.2306E-02  1.2505E-02  1.3276E-02  1.2506E-02  1.2840E-02
  2  5.8392E-03  5.5424E-03  5.6309E-03  5.5713E-03  5.4821E-03  5.6875E-03  5.6914E-03  5.7112E-03  5.6704E-03
  3  1.1690E-02  8.8505E-03  9.0683E-03  9.5606E-03  8.6281E-03  8.7922E-03  9.0349E-03  9.0082E-03  8.7750E-03
  4  0.0000E+00  4.8048E-04  5.0520E-04  0.0000E+00  4.9957E-04  8.1698E-04  4.0236E-04  6.0368E-04  7.4138E-04
  5  1.5617E-03  8.4293E-04  2.0440E-03  1.0975E-03  1.7825E-03  9.5185E-04  1.1869E-03  6.2860E-04  1.6179E-03
  6  0.0000E+00  5.6069E-04  1.6804E-03  5.2615E-04  1.1843E-03  0.0000E+00  9.5191E-04  0.0000E+00  7.9650E-04
  7  0.0000E+00  1.7508E-04  0.0000E+00  6.2516E-04  0.0000E+00  4.2987E-04  0.0000E+00  3.2346E-04  0.0000E+00
  8  0.0000E+00  8.9863E-05  0.0000E+00  7.9145E-04  0.0000E+00  0.0000E+00  0.0000E+00  0.0000E+00  0.0000E+00
  9  0.0000E+00  7.0246E-05  0.0000E+00  0.0000E+00  0.0000E+00  0.0000E+00  0.0000E+00  0.0000E+00  0.0000E+00
 10  0.0000E+00  6.3066E-05  0.0000E+00  0.0000E+00  0.0000E+00  0.0000E+00  0.0000E+00  0.0000E+00  0.0000E+00
 11  0.0000E+00  6.4576E-05  5.2910E-04  0.0000E+00  0.0000E+00  0.0000E+00  0.0000E+00  0.0000E+00  0.0000E+00
 12  0.0000E+00  7.1929E-05  0.0000E+00  0.0000E+00  0.0000E+00  0.0000E+00  0.0000E+00  0.0000E+00  0.0000E+00
 13  0.0000E+00  4.1638E-05  0.0000E+00  0.0000E+00  0.0000E+00  0.0000E+00  0.0000E+00  0.0000E+00  0.0000E+00
 14  0.0000E+00  6.1014E-05  0.0000E+00  0.0000E+00  0.0000E+00  0.0000E+00  0.0000E+00  0.0000E+00  0.0000E+00
 15  0.0000E+00  9.8032E-05  0.0000E+00  0.0000E+00  0.0000E+00  0.0000E+00  0.0000E+00  0.0000E+00  0.0000E+00
 16  0.0000E+00  2.5984E-04  0.0000E+00  0.0000E+00  0.0000E+00  0.0000E+00  0.0000E+00  0.0000E+00  0.0000E+00
 17  0.0000E+00  4.0350E-04  0.0000E+00  0.0000E+00  0.0000E+00  0.0000E+00  0.0000E+00  0.0000E+00  0.0000E+00
 18  0.0000E+00  1.0728E-03  0.0000E+00  3.9977E-03  0.0000E+00  0.0000E+00  9.1961E-04  0.0000E+00  0.0000E+00
 19  0.0000E+00  3.4197E-03  0.0000E+00  0.0000E+00  5.6706E-03  0.0000E+00  0.0000E+00  0.0000E+00  0.0000E+00
 20  0.0000E+00  9.2429E-03  0.0000E+00  0.0000E+00  0.0000E+00  0.0000E+00  0.0000E+00  0.0000E+00  0.0000E+00
 21  0.0000E+00  1.1341E-02  3.0747E-02  0.0000E+00  0.0000E+00  0.0000E+00  7.0275E-03  0.0000E+00  0.0000E+00
 22  0.0000E+00  1.9911E-02  7.6352E-02  3.8863E-02  0.0000E+00  0.0000E+00  0.0000E+00  0.0000E+00  0.0000E+00
 23  0.0000E+00  2.2941E-02  0.0000E+00  0.0000E+00  8.0008E-02  1.5740E-02  1.4026E-01  7.9992E-02  0.0000E+00
 24  0.0000E+00  2.5299E-02  0.0000E+00  0.0000E+00  0.0000E+00  0.0000E+00  3.9847E-03  0.0000E+00  0.0000E+00
 25  0.0000E+00  3.8145E-02  0.0000E+00  1.6241E-01  0.0000E+00  3.3043E-02  6.9924E-02  9.5154E-02  0.0000E+00
 26  9.8816E-03  9.2963E-03  9.1069E-03  1.0067E-02  9.2208E-03  8.9765E-03  8.4236E-03  9.6318E-03  9.1557E-03
 27  0.0000E+00  1.2726E-05  0.0000E+00  0.0000E+00  0.0000E+00  0.0000E+00  0.0000E+00  0.0000E+00  0.0000E+00
 28  0.0000E+00  1.1705E-04  0.0000E+00  0.0000E+00  0.0000E+00  0.0000E+00  0.0000E+00  0.0000E+00  0.0000E+00
 29  0.0000E+00  7.9563E-05  0.0000E+00  0.0000E+00  0.0000E+00  0.0000E+00  0.0000E+00  0.0000E+00  1.9023E-05
 30  0.0000E+00  1.0454E-04  0.0000E+00  0.0000E+00  3.8907E-04  4.0595E-04  0.0000E+00  0.0000E+00  0.0000E+00
 31  0.0000E+00  1.9366E-04  1.3471E-04  0.0000E+00  0.0000E+00  5.1547E-04  0.0000E+00  3.0478E-04  0.0000E+00
 32  0.0000E+00  6.2525E-05  0.0000E+00  0.0000E+00  0.0000E+00  0.0000E+00  0.0000E+00  3.9534E-04  0.0000E+00
 33  0.0000E+00  4.7558E-05  0.0000E+00  0.0000E+00  0.0000E+00  0.0000E+00  0.0000E+00  0.0000E+00  0.0000E+00
 34  0.0000E+00  5.1234E-05  0.0000E+00  0.0000E+00  0.0000E+00  0.0000E+00  0.0000E+00  0.0000E+00  0.0000E+00
 35  0.0000E+00  5.2071E-05  2.2223E-05  0.0000E+00  0.0000E+00  0.0000E+00  0.0000E+00  0.0000E+00  0.0000E+00
 36  0.0000E+00  3.0782E-05  0.0000E+00  0.0000E+00  0.0000E+00  0.0000E+00  0.0000E+00  0.0000E+00  0.0000E+00
 37  0.0000E+00  3.9787E-05  0.0000E+00  0.0000E+00  0.0000E+00  0.0000E+00  0.0000E+00  0.0000E+00  0.0000E+00
 38  0.0000E+00  5.2681E-05  0.0000E+00  0.0000E+00  0.0000E+00  0.0000E+00  0.0000E+00  0.0000E+00  2.6074E-04
 39  0.0000E+00  5.6995E-05  0.0000E+00  0.0000E+00  0.0000E+00  0.0000E+00  0.0000E+00  0.0000E+00  0.0000E+00
 40  0.0000E+00  3.0137E-04  0.0000E+00  0.0000E+00  0.0000E+00  0.0000E+00  0.0000E+00  0.0000E+00  0.0000E+00
 41  0.0000E+00  5.1675E-04  0.0000E+00  0.0000E+00  0.0000E+00  0.0000E+00  0.0000E+00  0.0000E+00  0.0000E+00
 42  0.0000E+00  5.8746E-04  0.0000E+00  1.9477E-04  0.0000E+00  0.0000E+00  0.0000E+00  0.0000E+00  0.0000E+00
 43  0.0000E+00  2.8104E-03  0.0000E+00  2.7482E-03  0.0000E+00  0.0000E+00  0.0000E+00  1.5804E-03  0.0000E+00
 44  0.0000E+00  1.8233E-02  0.0000E+00  1.3041E-02  0.0000E+00  0.0000E+00  0.0000E+00  0.0000E+00  1.2761E-02
 45  4.2751E-01  1.5755E-01  2.9605E-01  2.1292E-01  2.6584E-01  3.4191E-01  2.8708E-01  1.4405E-01  4.1337E-01
 46  1.7977E-01  1.7096E-01  1.9244E-02  2.7397E-01  8.4850E-02  1.7303E-01  2.9666E-01  2.9921E-01  2.7948E-01
 47  0.0000E+00  8.7194E-02  5.6974E-02  4.1680E-02  2.7446E-01  6.3709E-02  7.7151E-02  1.2236E-01  9.5929E-02
 48  0.0000E+00  4.0505E-02  9.7632E-02  0.0000E+00  0.0000E+00  0.0000E+00  0.0000E+00  1.1469E-01  0.0000E+00
 49  0.0000E+00  3.4573E-02  0.0000E+00  0.0000E+00  1.4489E-02  1.0398E-01  1.4408E-01  2.6251E-02  0.0000E+00
 50  0.0000E+00  3.7129E-02  0.0000E+00  0.0000E+00  0.0000E+00  0.0000E+00  0.0000E+00  7.0964E-02  0.0000E+00
 51  0.0000E+00  1.5853E-04  2.5237E-04  0.0000E+00  0.0000E+00  3.0341E-04  4.0985E-04  4.0234E-04  3.9553E-04
 52  0.0000E+00  1.6344E-05  0.0000E+00  0.0000E+00  0.0000E+00  0.0000E+00  0.0000E+00  0.0000E+00  2.7330E-06
 53  0.0000E+00  2.5421E-05  0.0000E+00  0.0000E+00  5.9573E-05  0.0000E+00  0.0000E+00  4.9207E-05  0.0000E+00
 54  0.0000E+00  1.4333E-05  0.0000E+00  0.0000E+00  0.0000E+00  0.0000E+00  0.0000E+00  0.0000E+00  0.0000E+00
 55  0.0000E+00  2.7727E-05  0.0000E+00  0.0000E+00  2.3098E-04  0.0000E+00  0.0000E+00  0.0000E+00  0.0000E+00
 56  0.0000E+00  4.2311E-05  0.0000E+00  0.0000E+00  4.1631E-05  0.0000E+00  0.0000E+00  0.0000E+00  0.0000E+00
 57  0.0000E+00  3.9919E-05  0.0000E+00  0.0000E+00  0.0000E+00  2.2479E-04  0.0000E+00  0.0000E+00  0.0000E+00
 58  0.0000E+00  7.0219E-05  0.0000E+00  0.0000E+00  0.0000E+00  0.0000E+00  0.0000E+00  0.0000E+00  0.0000E+00
 59  0.0000E+00  5.9061E-05  0.0000E+00  5.5519E-05  0.0000E+00  0.0000E+00  0.0000E+00  0.0000E+00  0.0000E+00
 60  0.0000E+00  3.9217E-05  0.0000E+00  0.0000E+00  0.0000E+00  0.0000E+00  0.0000E+00  0.0000E+00  0.0000E+00
 61  0.0000E+00  2.5420E-05  0.0000E+00  0.0000E+00  0.0000E+00  0.0000E+00  0.0000E+00  0.0000E+00  0.0000E+00
 62  0.0000E+00  4.2021E-05  0.0000E+00  0.0000E+00  0.0000E+00  0.0000E+00  0.0000E+00  0.0000E+00  4.6447E-04
 63  0.0000E+00  6.4865E-05  0.0000E+00  0.0000E+00  0.0000E+00  0.0000E+00  0.0000E+00  0.0000E+00  0.0000E+00
 64  0.0000E+00  1.6754E-04  0.0000E+00  0.0000E+00  0.0000E+00  0.0000E+00  0.0000E+00  0.0000E+00  0.0000E+00
 65  0.0000E+00  7.4457E-04  0.0000E+00  0.0000E+00  0.0000E+00  0.0000E+00  0.0000E+00  0.0000E+00  0.0000E+00
 66  0.0000E+00  1.8465E-03  0.0000E+00  0.0000E+00  0.0000E+00  0.0000E+00  0.0000E+00  1.9070E-03  0.0000E+00
 67  0.0000E+00  1.9347E-03  0.0000E+00  0.0000E+00  0.0000E+00  0.0000E+00  0.0000E+00  0.0000E+00  0.0000E+00
 68  0.0000E+00  1.1555E-02  0.0000E+00  4.1858E-03  4.2301E-02  2.1543E-02  0.0000E+00  0.0000E+00  0.0000E+00
 69  0.0000E+00  4.1999E-02  1.9481E-01  0.0000E+00  9.6522E-02  1.7834E-02  0.0000E+00  3.2930E-02  0.0000E+00
 70  0.0000E+00  4.3177E-02  4.4726E-02  0.0000E+00  0.0000E+00  0.0000E+00  0.0000E+00  1.4483E-02  0.0000E+00
 71  8.4241E-04  4.2109E-02  2.3458E-02  0.0000E+00  0.0000E+00  0.0000E+00  0.0000E+00  1.9390E-02  1.4350E-01
 72  0.0000E+00  4.7232E-02  0.0000E+00  1.4948E-01  4.1298E-02  1.4270E-02  0.0000E+00  0.0000E+00  2.9718E-02
 73  1.5440E-02  8.3306E-02  0.0000E+00  0.0000E+00  0.0000E+00  0.0000E+00  0.0000E+00  0.0000E+00  2.6346E-01
 74  0.0000E+00  7.3621E-02  1.4499E-02  0.0000E+00  2.8005E-02  2.0452E-01  6.2291E-02  7.5306E-02  0.0000E+00
 75  0.0000E+00  7.0493E-02  0.0000E+00  2.3923E-02  0.0000E+00  0.0000E+00  0.0000E+00  0.0000E+00  0.0000E+00
 76  0.0000E+00  2.9364E-04  0.0000E+00  0.0000E+00  3.1206E-04  5.6450E-04  0.0000E+00  0.0000E+00  0.0000E+00
 77  0.0000E+00  1.9193E-05  0.0000E+00  0.0000E+00  0.0000E+00  4.0906E-05  0.0000E+00  7.4062E-05  0.0000E+00
 78  0.0000E+00  2.3290E-05  1.8778E-04  0.0000E+00  0.0000E+00  0.0000E+00  0.0000E+00  0.0000E+00  0.0000E+00
 79  0.0000E+00  2.7803E-05  1.5158E-04  0.0000E+00  0.0000E+00  0.0000E+00  0.0000E+00  0.0000E+00  0.0000E+00
 80  0.0000E+00  1.2335E-05  0.0000E+00  0.0000E+00  0.0000E+00  0.0000E+00  0.0000E+00  0.0000E+00  0.0000E+00
 81  0.0000E+00  1.8409E-05  0.0000E+00  0.0000E+00  0.0000E+00  0.0000E+00  0.0000E+00  0.0000E+00  0.0000E+00
 82  0.0000E+00  2.4103E-05  0.0000E+00  0.0000E+00  0.0000E+00  0.0000E+00  0.0000E+00  0.0000E+00  0.0000E+00
 83  0.0000E+00  2.7530E-05  0.0000E+00  0.0000E+00  0.0000E+00  0.0000E+00  0.0000E+00  0.0000E+00  0.0000E+00
 84  0.0000E+00  3.5936E-05  0.0000E+00  0.0000E+00  0.0000E+00  0.0000E+00  0.0000E+00  0.0000E+00  0.0000E+00
 85  0.0000E+00  3.4511E-05  0.0000E+00  0.0000E+00  0.0000E+00  0.0000E+00  0.0000E+00  0.0000E+00  0.0000E+00
 86  0.0000E+00  5.0372E-05  0.0000E+00  0.0000E+00  0.0000E+00  0.0000E+00  0.0000E+00  0.0000E+00  0.0000E+00
 87  0.0000E+00  5.2667E-05  0.0000E+00  0.0000E+00  0.0000E+00  0.0000E+00  0.0000E+00  3.3864E-04  0.0000E+00
 88  0.0000E+00  4.8008E-05  0.0000E+00  2.2154E-04  0.0000E+00  0.0000E+00  0.0000E+00  0.0000E+00  0.0000E+00
 89  0.0000E+00  1.6072E-04  0.0000E+00  0.0000E+00  0.0000E+00  0.0000E+00  0.0000E+00  0.0000E+00  0.0000E+00
 90  0.0000E+00  6.4406E-04  0.0000E+00  0.0000E+00  0.0000E+00  0.0000E+00  0.0000E+00  0.0000E+00  0.0000E+00
 91  0.0000E+00  2.3048E-03  2.5062E-03  0.0000E+00  0.0000E+00  0.0000E+00  0.0000E+00  0.0000E+00  0.0000E+00
 92  0.0000E+00  3.3174E-03  0.0000E+00  4.7135E-03  0.0000E+00  0.0000E+00  0.0000E+00  2.4315E-03  2.2882E-03
 93  0.0000E+00  3.4645E-02  2.3930E-02  6.9753E-02  2.5270E-01  2.6836E-03  0.0000E+00  2.1602E-02  2.5296E-04
 94  1.1531E-01  1.4908E-01  7.5379E-01  2.9208E-01  2.5864E-01  4.7739E-01  0.0000E+00  1.3786E-01  2.1003E-01
 95  6.1448E-01  3.0286E-01  2.0182E-01  2.9639E-01  4.9563E-01  3.5127E-01  4.9693E-01  7.0818E-01  1.4770E-01
 96  0.0000E+00  2.8768E-01  1.7961E-01  1.2188E-01  2.5497E-01  1.7694E-01  3.4900E-01  6.8004E-01  1.2666E-01
 97  7.2717E+00  9.9173E+00  9.4237E+00  1.0004E+01  9.5780E+00  9.7310E+00  9.1052E+00  8.3695E+00  9.7759E+00
 98  2.9702E+01  2.6944E+01  2.7084E+01  2.7013E+01  2.6623E+01  2.8038E+01  2.6945E+01  2.7667E+01  2.8306E+01
 99  3.5292E+01  3.1136E+01  3.0830E+01  3.1479E+01  3.1774E+01  3.0961E+01  3.1612E+01  3.1427E+01  3.1416E+01
100  0.0000E+00  8.8965E-01  1.1021E+00  8.9806E-01  1.6349E+00  7.4130E-01  2.0639E+00  8.0269E-01  2.4413E-01
101  0.0000E+00  5.3305E-05  0.0000E+00  0.0000E+00  0.0000E+00  0.0000E+00  0.0000E+00  3.6545E-04  0.0000E+00
102  0.0000E+00  1.7969E-05  2.2612E-05  0.0000E+00  0.0000E+00  0.0000E+00  0.0000E+00  0.0000E+00  0.0000E+00
103  0.0000E+00  1.2983E-05  0.0000E+00  0.0000E+00  0.0000E+00  1.2568E-05  0.0000E+00  0.0000E+00  0.0000E+00
104  0.0000E+00  1.5957E-05  3.8868E-05  2.7165E-05  0.0000E+00  0.0000E+00  0.0000E+00  0.0000E+00  0.0000E+00
105  0.0000E+00  4.6645E-05  0.0000E+00  0.0000E+00  0.0000E+00  0.0000E+00  0.0000E+00  0.0000E+00  0.0000E+00
106  0.0000E+00  3.7426E-05  0.0000E+00  0.0000E+00  0.0000E+00  0.0000E+00  0.0000E+00  0.0000E+00  0.0000E+00
107  0.0000E+00  6.0518E-05  0.0000E+00  0.0000E+00  0.0000E+00  0.0000E+00  0.0000E+00  0.0000E+00  0.0000E+00
108  0.0000E+00  6.1521E-05  1.5791E-05  0.0000E+00  0.0000E+00  0.0000E+00  0.0000E+00  0.0000E+00  0.0000E+00
109  0.0000E+00  3.0735E-05  0.0000E+00  4.7580E-04  0.0000E+00  0.0000E+00  0.0000E+00  0.0000E+00  0.0000E+00
110  0.0000E+00  2.6396E-05  0.0000E+00  0.0000E+00  0.0000E+00  0.0000E+00  0.0000E+00  0.0000E+00  0.0000E+00
111  0.0000E+00  2.8615E-05  0.0000E+00  1.7771E-04  0.0000E+00  0.0000E+00  0.0000E+00  0.0000E+00  0.0000E+00
112  0.0000E+00  4.4031E-05  0.0000E+00  0.0000E+00  0.0000E+00  0.0000E+00  2.0236E-04  0.0000E+00  0.0000E+00
113  0.0000E+00  4.8209E-05  0.0000E+00  0.0000E+00  0.0000E+00  0.0000E+00  0.0000E+00  0.0000E+00  0.0000E+00
114  0.0000E+00  1.5205E-04  0.0000E+00  0.0000E+00  0.0000E+00  0.0000E+00  0.0000E+00  0.0000E+00  0.0000E+00
115  0.0000E+00  1.0876E-03  2.2989E-04  0.0000E+00  0.0000E+00  0.0000E+00  0.0000E+00  0.0000E+00  0.0000E+00
116  0.0000E+00  3.8189E-03  0.0000E+00  0.0000E+00  0.0000E+00  2.5130E-03  0.0000E+00  1.7751E-02  3.6891E-03
117  0.0000E+00  6.8557E-03  0.0000E+00  0.0000E+00  1.3156E-03  0.0000E+00  0.0000E+00  0.0000E+00  0.0000E+00
118  0.0000E+00  4.4875E-02  0.0000E+00  0.0000E+00  0.0000E+00  1.0327E-01  2.5051E-02  0.0000E+00  0.0000E+00
119  0.0000E+00  1.3027E-01  0.0000E+00  2.0912E-02  3.4961E-01  0.0000E+00  1.2231E-01  0.0000E+00  0.0000E+00
120  3.1708E+00  4.7542E-01  1.3459E+00  7.3692E-01  5.0256E-01  3.2802E-01  8.0098E-01  1.9642E-01  3.3862E-01
121  3.4771E+00  2.6332E+00  2.5920E+00  2.8018E+00  2.1906E+00  1.7976E+00  2.6865E+00  2.2949E+00  2.9665E+00
122  1.4412E+01  1.2653E+01  1.3123E+01  1.1963E+01  1.2920E+01  1.2719E+01  1.2801E+01  1.2937E+01  1.2785E+01
123  2.9413E+00  2.5586E+00  2.7235E+00  3.1701E+00  2.3202E+00  3.3516E+00  2.6093E+00  2.8553E+00  2.3812E+00
124  1.0875E-01  5.4329E-01  6.0960E-01  7.7649E-01  6.9187E-01  5.4390E-01  0.0000E+00  8.4063E-01  5.0674E-01
125  2.1362E+00  9.3405E+00  9.0394E+00  8.9409E+00  9.0326E+00  9.0707E+00  8.8349E+00  9.6212E+00  8.8288E+00
126  0.0000E+00  1.2969E-04  0.0000E+00  1.1815E-04  4.3205E-04  1.6218E-05  2.5099E-04  0.0000E+00  2.5749E-04
127  0.0000E+00  8.8321E-06  0.0000E+00  0.0000E+00  0.0000E+00  0.0000E+00  0.0000E+00  0.0000E+00  0.0000E+00
128  0.0000E+00  2.5500E-05  0.0000E+00  0.0000E+00  0.0000E+00  0.0000E+00  8.3926E-05  0.0000E+00  0.0000E+00
129  0.0000E+00  4.9862E-05  0.0000E+00  5.9360E-05  0.0000E+00  3.6169E-06  0.0000E+00  0.0000E+00  0.0000E+00
130  0.0000E+00  4.2571E-05  0.0000E+00  0.0000E+00  0.0000E+00  0.0000E+00  0.0000E+00  0.0000E+00  0.0000E+00
131  0.0000E+00  2.7116E-05  0.0000E+00  0.0000E+00  0.0000E+00  0.0000E+00  0.0000E+00  0.0000E+00  0.0000E+00
132  0.0000E+00  4.1519E-05  0.0000E+00  0.0000E+00  0.0000E+00  0.0000E+00  0.0000E+00  0.0000E+00  0.0000E+00
133  0.0000E+00  3.7789E-05  0.0000E+00  0.0000E+00  0.0000E+00  0.0000E+00  0.0000E+00  0.0000E+00  0.0000E+00
134  0.0000E+00  2.0019E-05  0.0000E+00  0.0000E+00  0.0000E+00  0.0000E+00  0.0000E+00  0.0000E+00  0.0000E+00
135  0.0000E+00  2.1080E-05  0.0000E+00  0.0000E+00  0.0000E+00  0.0000E+00  0.0000E+00  0.0000E+00  0.0000E+00
136  0.0000E+00  3.3794E-05  0.0000E+00  0.0000E+00  0.0000E+00  0.0000E+00  0.0000E+00  0.0000E+00  0.0000E+00
137  0.0000E+00  4.7327E-05  0.0000E+00  0.0000E+00  0.0000E+00  0.0000E+00  0.0000E+00  0.0000E+00  0.0000E+00
138  0.0000E+00  7.7929E-05  0.0000E+00  0.0000E+00  0.0000E+00  0.0000E+00  0.0000E+00  0.0000E+00  0.0000E+00
139  0.0000E+00  2.7467E-04  0.0000E+00  0.0000E+00  0.0000E+00  8.6653E-05  9.4970E-04  2.1853E-05  0.0000E+00
140  0.0000E+00  3.2295E-03  0.0000E+00  0.0000E+00  0.0000E+00  0.0000E+00  0.0000E+00  2.1833E-02  0.0000E+00
141  0.0000E+00  9.2367E-03  0.0000E+00  0.0000E+00  3.2827E-04  0.0000E+00  8.3527E-03  5.1746E-03  1.4426E-02
142  0.0000E+00  1.3845E-02  0.0000E+00  0.0000E+00  0.0000E+00  0.0000E+00  1.4621E-02  0.0000E+00  0.0000E+00
143  0.0000E+00  8.8535E-02  6.9510E-02  2.4580E-01  0.0000E+00  1.2937E-01  4.4776E-02  0.0000E+00  6.7808E-02
144  9.2925E-02  2.8150E-01  0.0000E+00  1.9632E-01  9.9838E-02  3.6270E-01  0.0000E+00  2.3647E-01  3.4425E-01
145  0.0000E+00  1.6516E-01  0.0000E+00  0.0000E+00  0.0000E+00  8.1846E-02  6.3047E-02  0.0000E+00  2.5387E-01
146  0.0000E+00  6.9439E-02  0.0000E+00  0.0000E+00  0.0000E+00  0.0000E+00  2.8667E-01  0.0000E+00  0.0000E+00
147  0.0000E+00  3.7330E-02  0.0000E+00  0.0000E+00  4.5400E-02  0.0000E+00  0.0000E+00  0.0000E+00  0.0000E+00
148  0.0000E+00  5.4856E-02  0.0000E+00  0.0000E+00  0.0000E+00  0.0000E+00  0.0000E+00  0.0000E+00  0.0000E+00
149  0.0000E+00  3.6840E-02  0.0000E+00  0.0000E+00  0.0000E+00  0.0000E+00  0.0000E+00  1.8846E-02  0.0000E+00
150  0.0000E+00  3.8302E-02  0.0000E+00  0.0000E+00  0.0000E+00  0.0000E+00  0.0000E+00  0.0000E+00  0.0000E+00

# AV, chi2 & Mass for <> & i_chain = 1 ...  7 solutions
AV       1.3272      1.3148      1.3196      1.3159      1.3216      1.3139      1.3161      1.3190      1.3159
chi2 2.5197E+00  2.5700E+00  2.5491E+00  2.5524E+00  2.5511E+00  2.5539E+00  2.5490E+00  2.5537E+00  2.5480E+00
Mass 1.0004E-09  1.0196E-09  1.0194E-09  1.0193E-09  1.0226E-09  1.0197E-09  1.0243E-09  1.0304E-09  1.0190E-09
   7.92                                  [v0_min (km/s) before EX0s...]
  33.31                                  [vd_min (km/s) before EX0s...]


## Synthetic spectrum (Best Model) ##l_obs f_obs f_syn wei
 3070    [Nl_obs]
 3359.00    0.00000   0.41300   -2.000
 3360.00    0.00000   0.38075   -2.000
 3361.00    0.11146   0.38081   -1.000
 3362.00    0.24548   0.40941   -1.000
 3363.00    0.26030   0.45037   -1.000
 3364.00    0.28348   0.48113   -1.000
 3365.00    0.30812   0.48827   -1.000
 3366.00    0.29914   0.47101   -1.000
 3367.00    0.27284   0.44658   -1.000
 3368.00    0.25068   0.42330   -1.000
 3369.00    0.25452   0.40884   -1.000
 3370.00    0.26359   0.40102   -1.000
 3371.00    0.25439   0.39674   -1.000
 3372.00    0.24785   0.40006   -1.000
 3373.00    0.25042   0.41852   -1.000
 3374.00    0.27259   0.44916   -1.000
 3375.00    0.29779   0.48314   -1.000
 3376.00    0.30768   0.50613   -1.000
 3377.00    0.32791   0.50655   -1.000
 3378.00    0.35324   0.48198   -1.000
 3379.00    0.35345   0.45403   -1.000
 3380.00    0.32818   0.43880   -1.000
 3381.00    0.31826   0.44425   -1.000
 3382.00    0.32149   0.46107   -1.000
 3383.00    0.31359   0.47767   -1.000
 3384.00    0.31172   0.48933   -1.000
 3385.00    0.30912   0.50027   -1.000
 3386.00    0.31942   0.50546   -1.000
 3387.00    0.34197   0.50536   -1.000
 3388.00    0.35331   0.50502   -1.000
 3389.00    0.36959   0.50447   -1.000
 3390.00    0.36658   0.49989   -1.000
 3391.00    0.35933   0.48556   -1.000
 3392.00    0.36017   0.46723   -1.000
 3393.00    0.35575   0.46077   -1.000
 3394.00    0.37049   0.47074   -1.000
 3395.00    0.37382   0.49400   -1.000
 3396.00    0.37491   0.51640   -1.000
 3397.00    0.41248   0.53499   -1.000
 3398.00    0.44715   0.55117   -1.000
 3399.00    0.45640   0.55922   -1.000
 3400.00    0.46654   0.55565   -1.000
 3401.00    0.45553   0.54453   -1.000
 3402.00    0.42909   0.52762   -1.000
 3403.00    0.42083   0.51277   -1.000
 3404.00    0.42647   0.50365   -1.000
 3405.00    0.43072   0.49730   -1.000
 3406.00    0.40968   0.49033   -1.000
 3407.00    0.38940   0.48336   -1.000
 3408.00    0.38597   0.48169   -1.000
 3409.00    0.39738   0.48574   -1.000
 3410.00    0.40707   0.49488   -1.000
 3411.00    0.39915   0.49673   -1.000
 3412.00    0.40674   0.48357   -1.000
 3413.00    0.40999   0.46458   -1.000
 3414.00    0.40743   0.45021   -1.000
 3415.00    0.40683   0.45446   -1.000
 3416.00    0.39692   0.47198   -1.000
 3417.00    0.41079   0.49843   -1.000
 3418.00    0.44406   0.52349   -1.000
 3419.00    0.46476   0.54410   -1.000
 3420.00    0.49117   0.55216   -1.000
 3421.00    0.49696   0.54431   -1.000
 3422.00    0.47142   0.52298   -1.000
 3423.00    0.44539   0.50815   -1.000
 3424.00    0.44892   0.50602   -1.000
 3425.00    0.47094   0.51015   64.307
 3426.00    0.47563   0.51424   64.231
 3427.00    0.47668   0.52168   62.425
 3428.00    0.47245   0.53860   -1.000
 3429.00    0.47245   0.56209   -1.000
 3430.00    0.49012   0.56847   -1.000
 3431.00    0.49830   0.55243   -1.000
 3432.00    0.47768   0.52690   -1.000
 3433.00    0.46945   0.51144   -1.000
 3434.00    0.48787   0.51719   -1.000
 3435.00    0.49013   0.52845   61.274
 3436.00    0.47843   0.52935   -1.000
 3437.00    0.47116   0.51595   -1.000
 3438.00    0.45353   0.49199   -1.000
 3439.00    0.42298   0.45633   62.262
 3440.00    0.40407   0.42098   65.560
 3441.00    0.38203   0.39662   70.065
 3442.00    0.38173   0.39200   74.462
 3443.00    0.39558   0.40366   76.164
 3444.00    0.39738   0.42202   76.070
 3445.00    0.41411   0.43924   74.520
 3446.00    0.43222   0.45877   71.029
 3447.00    0.43538   0.48064   67.112
 3448.00    0.44855   0.50525   -1.000
 3449.00    0.48101   0.52820   -1.000
 3450.00    0.51142   0.53626   -1.000
 3451.00    0.52291   0.52204  509.419
 3452.00    0.51079   0.50519  509.419
 3453.00    0.49174   0.50064   -1.000
 3454.00    0.48470   0.50996   -1.000
 3455.00    0.50044   0.51946   -1.000
 3456.00    0.50818   0.51469   -1.000
 3457.00    0.49257   0.49772  509.419
 3458.00    0.47009   0.47455  509.419
 3459.00    0.47167   0.45796   -1.000
 3460.00    0.47071   0.44853  124.882
 3461.00    0.44549   0.45161   61.560
 3462.00    0.46666   0.46951   61.855
 3463.00    0.50710   0.49741  100.172
 3464.00    0.52268   0.50749   -1.000
 3465.00    0.53742   0.50161   -1.000
 3466.00    0.52353   0.49682   -1.000
 3467.00    0.49283   0.50264   -1.000
 3468.00    0.50527   0.52056   -1.000
 3469.00    0.55280   0.53834   -1.000
 3470.00    0.57043   0.54469   -1.000
 3471.00    0.54969   0.53301   -1.000
 3472.00    0.53241   0.51056   -1.000
 3473.00    0.53402   0.48178   -1.000
 3474.00    0.52471   0.45411   -1.000
 3475.00    0.47815   0.43280   -1.000
 3476.00    0.44726   0.43050  127.425
 3477.00    0.47218   0.44734   62.684
 3478.00    0.49826   0.47306   63.437
 3479.00    0.50903   0.49579  100.425
 3480.00    0.51242   0.50969  509.419
 3481.00    0.51245   0.51193  509.419
 3482.00    0.52249   0.50259   -1.000
 3483.00    0.52607   0.49055   -1.000
 3484.00    0.52816   0.48731   -1.000
 3485.00    0.53251   0.50341   -1.000
 3486.00    0.52785   0.52521  509.419
 3487.00    0.55125   0.53557   -1.000
 3488.00    0.55802   0.52270   -1.000
 3489.00    0.51504   0.49369   -1.000
 3490.00    0.47927   0.46717   -1.000
 3491.00    0.48630   0.45729   -1.000
 3492.00    0.49148   0.46542   -1.000
 3493.00    0.49999   0.47916   -1.000
 3494.00    0.50530   0.48786   -1.000
 3495.00    0.49491   0.48280   -1.000
 3496.00    0.48337   0.47107   -1.000
 3497.00    0.49095   0.47338   -1.000
 3498.00    0.52440   0.49803   -1.000
 3499.00    0.55166   0.53202   -1.000
 3500.00    0.56657   0.55119   -1.000
 3501.00    0.58408   0.55753   -1.000
 3502.00    0.59250   0.56512   -1.000
 3503.00    0.59840   0.57036   -1.000
 3504.00    0.60492   0.56414   -1.000
 3505.00    0.58543   0.54964   -1.000
 3506.00    0.55795   0.53714   -1.000
 3507.00    0.55540   0.53495   -1.000
 3508.00    0.56974   0.53512   -1.000
 3509.00    0.56397   0.52592   -1.000
 3510.00    0.55066   0.51302   -1.000
 3511.00    0.53387   0.49982   -1.000
 3512.00    0.52291   0.48549   -1.000
 3513.00    0.51521   0.47080   -1.000
 3514.00    0.51274   0.46585   -1.000
 3515.00    0.51226   0.48377   -1.000
 3516.00    0.53464   0.52225   -1.000
 3517.00    0.57720   0.55616   -1.000
 3518.00    0.60366   0.56987   -1.000
 3519.00    0.58520   0.55608   -1.000
 3520.00    0.55282   0.52936   -1.000
 3521.00    0.51952   0.50095   -1.000
 3522.00    0.49845   0.47926   -1.000
 3523.00    0.48704   0.45891   -1.000
 3524.00    0.47626   0.43895   -1.000
 3525.00    0.45723   0.42666   -1.000
 3526.00    0.45065   0.43892   62.049
 3527.00    0.47279   0.47066   63.221
 3528.00    0.50797   0.51077   97.939
 3529.00    0.55177   0.53917   -1.000
 3530.00    0.56384   0.54808   -1.000
 3531.00    0.55348   0.54007   -1.000
 3532.00    0.55229   0.53418   -1.000
 3533.00    0.55665   0.54018   -1.000
 3534.00    0.56102   0.55239   -1.000
 3535.00    0.56255   0.56260  509.419
 3536.00    0.57775   0.56540   -1.000
 3537.00    0.57146   0.56825  493.812
 3538.00    0.56570   0.57908   -1.000
 3539.00    0.57546   0.58678   -1.000
 3540.00    0.56981   0.58379   -1.000
 3541.00    0.56585   0.57317   -1.000
 3542.00    0.56859   0.56779  488.402
 3543.00    0.56302   0.57549   -1.000
 3544.00    0.54143   0.58650   -1.000
 3545.00    0.54849   0.59126   -1.000
 3546.00    0.55359   0.58540   -1.000
 3547.00    0.54529   0.57756   -1.000
 3548.00    0.54494   0.57583   -1.000
 3549.00    0.54342   0.57867   -1.000
 3550.00    0.54815   0.57919   -1.000
 3551.00    0.54527   0.57088   -1.000
 3552.00    0.52692   0.55502   -1.000
 3553.00    0.49650   0.53875   -1.000
 3554.00    0.49074   0.53181   -1.000
 3555.00    0.49372   0.53692   -1.000
 3556.00    0.51976   0.54320   -1.000
 3557.00    0.51831   0.54435   -1.000
 3558.00    0.50714   0.53952   -1.000
 3559.00    0.51111   0.53667   -1.000
 3560.00    0.49453   0.54332   -1.000
 3561.00    0.49765   0.55710   -1.000
 3562.00    0.52355   0.56901   -1.000
 3563.00    0.51119   0.55668   -1.000
 3564.00    0.47428   0.51886   -1.000
 3565.00    0.45299   0.47491   -1.000
 3566.00    0.45010   0.45322  137.322
 3567.00    0.43173   0.45476   62.750
 3568.00    0.41651   0.45568   64.047
 3569.00    0.41116   0.44467   63.433
 3570.00    0.42512   0.43437   64.037
 3571.00    0.44924   0.43657   65.864
 3572.00    0.47552   0.45438   65.783
 3573.00    0.47647   0.47220   63.347
 3574.00    0.48651   0.48424   93.273
 3575.00    0.49334   0.49204  509.419
 3576.00    0.49504   0.49566  509.419
 3577.00    0.48572   0.48780  509.419
 3578.00    0.46318   0.46914  509.419
 3579.00    0.43606   0.43820  509.419
 3580.00    0.41742   0.40915  144.335
 3581.00    0.39591   0.39133   65.710
 3582.00    0.39328   0.39227   70.368
 3583.00    0.39543   0.40196   72.927
 3584.00    0.39077   0.40232   73.309
 3585.00    0.38806   0.39301   74.190
 3586.00    0.39207   0.38568   76.295
 3587.00    0.37743   0.39151   78.280
 3588.00    0.38116   0.41083   77.399
 3589.00    0.41555   0.44319   73.365
 3590.00    0.45177   0.47989   69.594
 3591.00    0.48113   0.51028   65.091
 3592.00    0.50640   0.52215   91.741
 3593.00    0.52063   0.52298  509.419
 3594.00    0.52076   0.52913   -1.000
 3595.00    0.53508   0.54675   -1.000
 3596.00    0.56460   0.57034   -1.000
 3597.00    0.57787   0.58622   -1.000
 3598.00    0.58218   0.59677   -1.000
 3599.00    0.58498   0.60704   -1.000
 3600.00    0.58121   0.60831   -1.000
 3601.00    0.56777   0.58818   -1.000
 3602.00    0.56355   0.55601  472.630
 3603.00    0.55100   0.52339   -1.000
 3604.00    0.53518   0.50370   -1.000
 3605.00    0.50872   0.49869   -1.000
 3606.00    0.49835   0.49791  509.419
 3607.00    0.49512   0.48874   -1.000
 3608.00    0.47450   0.47097  509.419
 3609.00    0.46873   0.46187   -1.000
 3610.00    0.48066   0.47049   -1.000
 3611.00    0.49213   0.49362  509.419
 3612.00    0.50978   0.51317  509.419
 3613.00    0.52532   0.52650  509.419
 3614.00    0.53728   0.54110  509.419
 3615.00    0.54793   0.55549   -1.000
 3616.00    0.55487   0.54914   -1.000
 3617.00    0.52225   0.51578   -1.000
 3618.00    0.47437   0.46847   -1.000
 3619.00    0.45193   0.44965  509.419
 3620.00    0.46600   0.46898  143.707
 3621.00    0.51415   0.51259   89.462
 3622.00    0.56138   0.55326   -1.000
 3623.00    0.57088   0.57675   -1.000
 3624.00    0.57833   0.59410   -1.000
 3625.00    0.60256   0.62166   -1.000
 3626.00    0.61807   0.65216   -1.000
 3627.00    0.63520   0.67043   -1.000
 3628.00    0.64062   0.65921   -1.000
 3629.00    0.60109   0.61615   -1.000
 3630.00    0.54690   0.55029  448.422
 3631.00    0.49784   0.50198  485.047
 3632.00    0.46955   0.48605   -1.000
 3633.00    0.47921   0.50049   -1.000
 3634.00    0.50608   0.52576   -1.000
 3635.00    0.53593   0.54861   -1.000
 3636.00    0.57116   0.56349   -1.000
 3637.00    0.59311   0.58049   -1.000
 3638.00    0.60509   0.60515  494.169
 3639.00    0.60759   0.62765   -1.000
 3640.00    0.62035   0.63808   -1.000
 3641.00    0.60750   0.63059   -1.000
 3642.00    0.59276   0.60817   -1.000
 3643.00    0.57587   0.58177   -1.000
 3644.00    0.55749   0.55776  477.267
 3645.00    0.53459   0.53821  499.247
 3646.00    0.51057   0.52142   -1.000
 3647.00    0.50949   0.50595  509.419
 3648.00    0.52902   0.50377   -1.000
 3649.00    0.52646   0.51704   -1.000
 3650.00    0.53292   0.54615   -1.000
 3651.00    0.57004   0.58116   -1.000
 3652.00    0.60857   0.61593   -1.000
 3653.00    0.62748   0.63592   -1.000
 3654.00    0.62655   0.64558   -1.000
 3655.00    0.62939   0.65346   -1.000
 3656.00    0.65622   0.66497   -1.000
 3657.00    0.66130   0.68149   -1.000
 3658.00    0.65904   0.69295   -1.000
 3659.00    0.67348   0.69722   -1.000
 3660.00    0.67795   0.69381   -1.000
 3661.00    0.67522   0.68306   -1.000
 3662.00    0.66713   0.66536  421.563
 3663.00    0.64483   0.65130   -1.000
 3664.00    0.62835   0.64649   -1.000
 3665.00    0.63573   0.64900   -1.000
 3666.00    0.62922   0.65027   -1.000
 3667.00    0.61248   0.64147   -1.000
 3668.00    0.61447   0.62511   -1.000
 3669.00    0.62234   0.61275  445.855
 3670.00    0.61497   0.61894   -1.000
 3671.00    0.61545   0.64088   -1.000
 3672.00    0.64813   0.66029   -1.000
 3673.00    0.67123   0.66882  436.627
 3674.00    0.66941   0.66839  430.434
 3675.00    0.66137   0.65970  429.497
 3676.00    0.63656   0.63985   -1.000
 3677.00    0.60945   0.61236  434.914
 3678.00    0.57898   0.58432   -1.000
 3679.00    0.56516   0.56524  462.500
 3680.00    0.56905   0.56398  475.773
 3681.00    0.58114   0.58029  483.316
 3682.00    0.59765   0.60063  477.905
 3683.00    0.61299   0.61272  464.768
 3684.00    0.59887   0.60530   -1.000
 3685.00    0.57634   0.58091  455.361
 3686.00    0.54458   0.54929  469.214
 3687.00    0.54282   0.53515   -1.000
 3688.00    0.56648   0.54864   -1.000
 3689.00    0.60116   0.58815   -1.000
 3690.00    0.62353   0.63504   -1.000
 3691.00    0.65348   0.66713   -1.000
 3692.00    0.66327   0.66941   -1.000
 3693.00    0.65320   0.65099  420.482
 3694.00    0.64321   0.63486  426.699
 3695.00    0.63397   0.62928  436.742
 3696.00    0.64540   0.63491   -1.000
 3697.00    0.66136   0.64900   -1.000
 3698.00    0.66779   0.67404   -1.000
 3699.00    0.68582   0.69689   -1.000
 3700.00    0.70505   0.70744   -1.000
 3701.00    0.69547   0.69616  402.753
 3702.00    0.65300   0.66109   -1.000
 3703.00    0.60433   0.60307  413.049
 3704.00    0.55658   0.54645   -1.000
 3705.00    0.52050   0.50626   -1.000
 3706.00    0.50589   0.49474   -1.000
 3707.00    0.51114   0.50044   -1.000
 3708.00    0.52852   0.51190   -1.000
 3709.00    0.55299   0.53090   -1.000
 3710.00    0.57385   0.56267   -1.000
 3711.00    0.60108   0.60083  489.722
 3712.00    0.65694   0.64172   -1.000
 3713.00    0.69755   0.67626   -1.000
 3714.00    0.70614   0.69459  420.397
 3715.00    0.69324   0.69151  403.490
 3716.00    0.69050   0.67144   -1.000
 3717.00    0.67297   0.63333   -1.000
 3718.00    0.60856   0.57572   -1.000
 3719.00    0.52325   0.50660   -1.000
 3720.00    0.46965   0.44616   -1.000
 3721.00    0.45720   0.42374   -1.000
 3722.00    0.48043   0.44582   -1.000
 3723.00    0.52662   0.49642   86.032
 3724.00    0.58298   0.55631   -1.000
 3725.00    0.61005   0.59651   -1.000
 3726.00    0.62116   0.60038   -1.000
 3727.00    0.61131   0.58581   -1.000
 3728.00    0.60804   0.58178   -1.000
 3729.00    0.61828   0.58768   -1.000
 3730.00    0.61782   0.58523   -1.000
 3731.00    0.57483   0.55945   -1.000
 3732.00    0.53259   0.50393   -1.000
 3733.00    0.47029   0.44364   -1.000
 3734.00    0.41092   0.39447  158.214
 3735.00    0.39794   0.37251   63.063
 3736.00    0.40720   0.38257   69.138
 3737.00    0.43687   0.42537   69.758
 3738.00    0.48957   0.48466   65.212
 3739.00    0.53705   0.54844   83.420
 3740.00    0.58536   0.59166  509.419
 3741.00    0.59019   0.60191   -1.000
 3742.00    0.57537   0.57774  455.675
 3743.00    0.54492   0.53999  459.570
 3744.00    0.51437   0.50134   -1.000
 3745.00    0.48822   0.47530   -1.000
 3746.00    0.46554   0.45588   -1.000
 3747.00    0.44653   0.43070   -1.000
 3748.00    0.41914   0.40539  165.666
 3749.00    0.42483   0.39862   62.992
 3750.00    0.45903   0.42467   66.073
 3751.00    0.51006   0.48218   90.632
 3752.00    0.57231   0.54560   -1.000
 3753.00    0.61818   0.60111   -1.000
 3754.00    0.65600   0.64516   -1.000
 3755.00    0.67505   0.65856   -1.000
 3756.00    0.64168   0.62819   -1.000
 3757.00    0.57263   0.57064  412.496
 3758.00    0.52568   0.51802   -1.000
 3759.00    0.52463   0.50401   -1.000
 3760.00    0.54244   0.51930   -1.000
 3761.00    0.56043   0.53965   -1.000
 3762.00    0.56135   0.54921   -1.000
 3763.00    0.55943   0.55024   -1.000
 3764.00    0.56257   0.55125   -1.000
 3765.00    0.56927   0.54986   -1.000
 3766.00    0.56213   0.54211   -1.000
 3767.00    0.55677   0.53769   -1.000
 3768.00    0.57300   0.54214   -1.000
 3769.00    0.58419   0.54934   -1.000
 3770.00    0.59528   0.55708   -1.000
 3771.00    0.61930   0.57503   -1.000
 3772.00    0.63913   0.60183   -1.000
 3773.00    0.65345   0.62657   -1.000
 3774.00    0.65884   0.63906   -1.000
 3775.00    0.64987   0.64161  423.617
 3776.00    0.64291   0.64426  422.588
 3777.00    0.64848   0.65161  422.001
 3778.00    0.65426   0.66598   -1.000
 3779.00    0.67219   0.68324   -1.000
 3780.00    0.69683   0.69955  409.915
 3781.00    0.71182   0.71022  397.226
 3782.00    0.71122   0.71547  389.961
 3783.00    0.71009   0.71636   -1.000
 3784.00    0.69957   0.70339  385.907
 3785.00    0.67504   0.66816  388.662
 3786.00    0.62032   0.62347  401.124
 3787.00    0.58099   0.58432  425.259
 3788.00    0.56884   0.56041   -1.000
 3789.00    0.54962   0.55744   -1.000
 3790.00    0.57257   0.56984  478.905
 3791.00    0.58728   0.58189   -1.000
 3792.00    0.58568   0.58275  468.415
 3793.00    0.56994   0.56541  467.089
 3794.00    0.53684   0.54147  477.445
 3795.00    0.52751   0.51973   -1.000
 3796.00    0.52344   0.49801   -1.000
 3797.00    0.49479   0.47279   -1.000
 3798.00    0.48879   0.45803   -1.000
 3799.00    0.50019   0.47211   -1.000
 3800.00    0.54048   0.51807   -1.000
 3801.00    0.58050   0.57359   -1.000
 3802.00    0.61205   0.62230   -1.000
 3803.00    0.62235   0.65255   -1.000
 3804.00    0.62659   0.66264   -1.000
 3805.00    0.63747   0.64924   -1.000
 3806.00    0.60777   0.62531   -1.000
 3807.00    0.56857   0.61266   -1.000
 3808.00    0.57554   0.62274   -1.000
 3809.00    0.59358   0.64672   -1.000
 3810.00    0.61255   0.66385   -1.000
 3811.00    0.62116   0.65852   -1.000
 3812.00    0.59525   0.62493   -1.000
 3813.00    0.56329   0.57989   -1.000
 3814.00    0.53386   0.53739  467.259
 3815.00    0.50047   0.51514   -1.000
 3816.00    0.48673   0.51716   -1.000
 3817.00    0.49677   0.52888   -1.000
 3818.00    0.49839   0.52708   -1.000
 3819.00    0.47289   0.50003   -1.000
 3820.00    0.45187   0.47572   -1.000
 3821.00    0.44038   0.47601   -1.000
 3822.00    0.46578   0.49351   -1.000
 3823.00    0.47966   0.49928   -1.000
 3824.00    0.45379   0.47623   -1.000
 3825.00    0.41417   0.44647   -1.000
 3826.00    0.40376   0.42931   -1.000
 3827.00    0.40953   0.42930   64.283
 3828.00    0.41750   0.43915   65.125
 3829.00    0.42420   0.45069   64.397
 3830.00    0.41497   0.45290   63.341
 3831.00    0.41380   0.43844   62.787
 3832.00    0.38673   0.41345   64.150
 3833.00    0.37755   0.38970   67.697
 3834.00    0.38412   0.38232   72.315
 3835.00    0.40105   0.38724   73.476
 3836.00    0.41230   0.39689   71.540
 3837.00    0.40392   0.40269   68.971
 3838.00    0.38538   0.40216   68.268
 3839.00    0.38281   0.40684   69.837
 3840.00    0.40251   0.42633   70.747
 3841.00    0.45120   0.46725   68.661
 3842.00    0.49183   0.51456   85.220
 3843.00    0.52237   0.55563   -1.000
 3844.00    0.53586   0.57893   -1.000
 3845.00    0.54740   0.58772   -1.000
 3846.00    0.54000   0.59189   -1.000
 3847.00    0.54050   0.59432   -1.000
 3848.00    0.53943   0.58550   -1.000
 3849.00    0.51554   0.57118   -1.000
 3850.00    0.49926   0.56367   -1.000
 3851.00    0.50343   0.57190   -1.000
 3852.00    0.51666   0.58514   -1.000
 3853.00    0.52556   0.58756   -1.000
 3854.00    0.51934   0.57651   -1.000
 3855.00    0.49461   0.55971   -1.000
 3856.00    0.47940   0.54346   -1.000
 3857.00    0.46888   0.52444   -1.000
 3858.00    0.44760   0.49981   -1.000
 3859.00    0.42039   0.48331   -1.000
 3860.00    0.41757   0.49118   -1.000
 3861.00    0.45201   0.52760   -1.000
 3862.00    0.49847   0.57280   -1.000
 3863.00    0.53313   0.59861   -1.000
 3864.00    0.54152   0.59853   -1.000
 3865.00    0.53059   0.58725   -1.000
 3866.00    0.52915   0.58011   -1.000
 3867.00    0.51671   0.57843   -1.000
 3868.00    0.50868   0.57234   -1.000
 3869.00    0.48796   0.55795   -1.000
 3870.00    0.45235   0.53261   -1.000
 3871.00    0.44477   0.51206   -1.000
 3872.00    0.46131   0.50688   -1.000
 3873.00    0.48856   0.52853   78.440
 3874.00    0.53790   0.56724   -1.000
 3875.00    0.56573   0.59706   -1.000
 3876.00    0.56019   0.59224   -1.000
 3877.00    0.53068   0.56039   -1.000
 3878.00    0.50362   0.53650   -1.000
 3879.00    0.50191   0.53342   -1.000
 3880.00    0.49737   0.53882   -1.000
 3881.00    0.48844   0.54351   -1.000
 3882.00    0.48622   0.54714   -1.000
 3883.00    0.52610   0.55706   -1.000
 3884.00    0.57821   0.56159   -1.000
 3885.00    0.57948   0.54008   -1.000
 3886.00    0.55256   0.50529   -1.000
 3887.00    0.53146   0.47633   -1.000
 3888.00    0.53690   0.46955   -1.000
 3889.00    0.56696   0.49129   -1.000
 3890.00    0.59851   0.53683   -1.000
 3891.00    0.65835   0.59221   -1.000
 3892.00    0.69605   0.63575   -1.000
 3893.00    0.69763   0.65009   -1.000
 3894.00    0.68441   0.64407   -1.000
 3895.00    0.66837   0.64113   -1.000
 3896.00    0.67523   0.64858   -1.000
 3897.00    0.69533   0.65701   -1.000
 3898.00    0.70168   0.65739   -1.000
 3899.00    0.68831   0.65190   -1.000
 3900.00    0.67347   0.65197   -1.000
 3901.00    0.68780   0.65750   -1.000
 3902.00    0.70068   0.65712   -1.000
 3903.00    0.68218   0.64648   -1.000
 3904.00    0.65201   0.62807   -1.000
 3905.00    0.62667   0.61444   -1.000
 3906.00    0.62623   0.61923   -1.000
 3907.00    0.65141   0.64824  444.790
 3908.00    0.68967   0.68634  435.232
 3909.00    0.72591   0.71600   -1.000
 3910.00    0.74695   0.73171   -1.000
 3911.00    0.75392   0.74177   -1.000
 3912.00    0.76311   0.74571   -1.000
 3913.00    0.75797   0.74159   -1.000
 3914.00    0.74593   0.72987   -1.000
 3915.00    0.72545   0.71751   -1.000
 3916.00    0.72283   0.70677   -1.000
 3917.00    0.72545   0.69468   -1.000
 3918.00    0.70590   0.67569   -1.000
 3919.00    0.67550   0.64576   -1.000
 3920.00    0.63586   0.61594   -1.000
 3921.00    0.60656   0.59905   -1.000
 3922.00    0.60515   0.60086   -1.000
 3923.00    0.60837   0.61212  459.893
 3924.00    0.61624   0.61593  454.445
 3925.00    0.60170   0.60425  448.625
 3926.00    0.57299   0.57060  456.562
 3927.00    0.51763   0.52351  484.409
 3928.00    0.44565   0.47172   -1.000
 3929.00    0.39880   0.42452   -1.000
 3930.00    0.35302   0.38368   69.922
 3931.00    0.31019   0.34244   81.954
 3932.00    0.27192   0.30033   96.081
 3933.00    0.24991   0.26835  113.484
 3934.00    0.24490   0.26604  130.920
 3935.00    0.26188   0.29579   -1.000
 3936.00    0.31324   0.34306   -1.000
 3937.00    0.37058   0.39582  111.216
 3938.00    0.41521   0.45316   91.756
 3939.00    0.46381   0.50268   75.783
 3940.00    0.51532   0.54056   81.725
 3941.00    0.52114   0.56139   -1.000
 3942.00    0.53588   0.56355   -1.000
 3943.00    0.53762   0.56478   -1.000
 3944.00    0.54121   0.58108   -1.000
 3945.00    0.58623   0.61241   -1.000
 3946.00    0.64787   0.64311   -1.000
 3947.00    0.66223   0.66132  440.937
 3948.00    0.68536   0.67277   -1.000
 3949.00    0.70867   0.68963   -1.000
 3950.00    0.72915   0.70887   -1.000
 3951.00    0.74166   0.71385   -1.000
 3952.00    0.73063   0.71108   -1.000
 3953.00    0.72624   0.71743   -1.000
 3954.00    0.74781   0.72653   -1.000
 3955.00    0.73852   0.72441   -1.000
 3956.00    0.72954   0.71288   -1.000
 3957.00    0.71773   0.70265   -1.000
 3958.00    0.71517   0.70079   -1.000
 3959.00    0.70327   0.69011   -1.000
 3960.00    0.64222   0.64435  395.664
 3961.00    0.56287   0.58349   -1.000
 3962.00    0.52565   0.53294  458.344
 3963.00    0.50789   0.50148   -1.000
 3964.00    0.47692   0.47621   -1.000
 3965.00    0.42019   0.43428  220.861
 3966.00    0.36638   0.37603   65.637
 3967.00    0.31190   0.31317   77.770
 3968.00    0.26903   0.27082   95.900
 3969.00    0.26129   0.26640  115.168
 3970.00    0.29819   0.29815  122.695
 3971.00    0.35433   0.35198  110.696
 3972.00    0.42016   0.41646   91.062
 3973.00    0.49064   0.48064   75.128
 3974.00    0.55857   0.54292   79.105
 3975.00    0.61762   0.59825   -1.000
 3976.00    0.66152   0.64801   -1.000
 3977.00    0.72255   0.69510   -1.000
 3978.00    0.77210   0.73840   -1.000
 3979.00    0.80988   0.77703   -1.000
 3980.00    0.83471   0.79639   -1.000
 3981.00    0.82833   0.79620   -1.000
 3982.00    0.81859   0.78536   -1.000
 3983.00    0.81742   0.77923   -1.000
 3984.00    0.81942   0.78939   -1.000
 3985.00    0.84011   0.80737   -1.000
 3986.00    0.86797   0.82515   -1.000
 3987.00    0.88628   0.84279   -1.000
 3988.00    0.90826   0.85623   -1.000
 3989.00    0.91311   0.85993   -1.000
 3990.00    0.89663   0.86210   -1.000
 3991.00    0.90326   0.87174   -1.000
 3992.00    0.93051   0.88636   -1.000
 3993.00    0.93388   0.89497   -1.000
 3994.00    0.91836   0.88909   -1.000
 3995.00    0.90843   0.86937   -1.000
 3996.00    0.88748   0.84668   -1.000
 3997.00    0.87615   0.84036   -1.000
 3998.00    0.89101   0.85644   -1.000
 3999.00    0.91992   0.88785   -1.000
 4000.00    0.95520   0.91581   -1.000
 4001.00    0.97364   0.93521   -1.000
 4002.00    0.99954   0.94024   -1.000
 4003.00    0.99247   0.92205   -1.000
 4004.00    0.93287   0.87714   -1.000
 4005.00    0.87440   0.83371   -1.000
 4006.00    0.87280   0.82738   -1.000
 4007.00    0.91796   0.85970   -1.000
 4008.00    0.94911   0.90507   -1.000
 4009.00    0.97369   0.93396   -1.000
 4010.00    0.97664   0.94718   -1.000
 4011.00    0.97205   0.95221   -1.000
 4012.00    1.01263   0.95277   -1.000
 4013.00    1.01375   0.95716   -1.000
 4014.00    0.99196   0.96506   -1.000
 4015.00    0.99796   0.96766   -1.000
 4016.00    1.00000   0.96364   -1.000
 4017.00    0.99985   0.96039   -1.000
 4018.00    0.98967   0.96698   -1.000
 4019.00    1.00089   0.97804   -1.000
 4020.00    1.00718   0.98440   -1.000
 4021.00    1.00053   0.98056   -1.000
 4022.00    1.00365   0.97152   -1.000
 4023.00    0.99853   0.96029   -1.000
 4024.00    0.99275   0.95074   -1.000
 4025.00    0.99891   0.95318   -1.000
 4026.00    1.03060   0.97594   -1.000
 4027.00    1.06122   1.00466   -1.000
 4028.00    1.05988   1.00982   -1.000
 4029.00    1.01373   0.97457   -1.000
 4030.00    0.95539   0.91186   -1.000
 4031.00    0.92438   0.85913   -1.000
 4032.00    0.90802   0.83232   -1.000
 4033.00    0.90114   0.83415   -1.000
 4034.00    0.92149   0.86105   -1.000
 4035.00    0.97338   0.91227   -1.000
 4036.00    1.02464   0.97110   -1.000
 4037.00    1.06939   1.02172   -1.000
 4038.00    1.09179   1.04156   -1.000
 4039.00    1.07347   1.03174   -1.000
 4040.00    1.05663   1.01154   -1.000
 4041.00    1.03576   0.99985   -1.000
 4042.00    1.02583   0.98401   -1.000
 4043.00    1.00486   0.93419   -1.000
 4044.00    0.92386   0.85047   -1.000
 4045.00    0.83212   0.78273   -1.000
 4046.00    0.82238   0.78545   -1.000
 4047.00    0.89759   0.85739   -1.000
 4048.00    0.97064   0.93915   -1.000
 4049.00    1.00883   0.99752   -1.000
 4050.00    1.04768   1.01991   -1.000
 4051.00    1.04927   1.01718   -1.000
 4052.00    1.02293   0.99965   -1.000
 4053.00    1.01989   0.97511   -1.000
 4054.00    1.00662   0.95349   -1.000
 4055.00    0.96782   0.93691   -1.000
 4056.00    0.95332   0.92078   -1.000
 4057.00    0.96105   0.90873   -1.000
 4058.00    0.94577   0.91753   -1.000
 4059.00    0.97202   0.94727   -1.000
 4060.00    1.01465   0.96977   -1.000
 4061.00    1.00300   0.95325   -1.000
 4062.00    0.94785   0.89282   -1.000
 4063.00    0.88028   0.83914   -1.000
 4064.00    0.86026   0.82697   -1.000
 4065.00    0.89809   0.84575   -1.000
 4066.00    0.94016   0.87863   -1.000
 4067.00    0.99103   0.91348   -1.000
 4068.00    1.01854   0.94296   -1.000
 4069.00    1.03607   0.95260   -1.000
 4070.00    1.00534   0.92749   -1.000
 4071.00    0.96308   0.88904   -1.000
 4072.00    0.94255   0.88412   -1.000
 4073.00    0.98339   0.91162   -1.000
 4074.00    1.00277   0.93257   -1.000
 4075.00    0.96853   0.91252   -1.000
 4076.00    0.91340   0.86137   -1.000
 4077.00    0.86399   0.82980   -1.000
 4078.00    0.87522   0.84289   -1.000
 4079.00    0.94284   0.90150   -1.000
 4080.00    1.00419   0.96880   -1.000
 4081.00    1.05404   1.00922   -1.000
 4082.00    1.04151   1.00733   -1.000
 4083.00    1.00606   0.97919   -1.000
 4084.00    0.98950   0.95690   -1.000
 4085.00    0.99940   0.96129   -1.000
 4086.00    1.03152   0.99534   -1.000
 4087.00    1.09240   1.03863   -1.000
 4088.00    1.12428   1.07174   -1.000
 4089.00    1.13368   1.07955   -1.000
 4090.00    1.11217   1.06438   -1.000
 4091.00    1.08297   1.04293   -1.000
 4092.00    1.06111   1.03093   -1.000
 4093.00    1.06717   1.02136   -1.000
 4094.00    1.06278   1.00171   -1.000
 4095.00    1.01556   0.96934   -1.000
 4096.00    0.97931   0.93437   -1.000
 4097.00    0.96971   0.91256   -1.000
 4098.00    0.96008   0.89354   -1.000
 4099.00    0.92113   0.85468   -1.000
 4100.00    0.87433   0.79732   -1.000
 4101.00    0.81569   0.75273   -1.000
 4102.00    0.80924   0.74822   -1.000
 4103.00    0.86134   0.79610   -1.000
 4104.00    0.92447   0.86806   -1.000
 4105.00    0.96554   0.93168   -1.000
 4106.00    1.01450   0.97145   -1.000
 4107.00    1.03769   0.98795   -1.000
 4108.00    1.03350   0.98515   -1.000
 4109.00    1.01910   0.97311   -1.000
 4110.00    0.98829   0.96278   -1.000
 4111.00    0.97273   0.96546  306.789
 4112.00    0.98137   0.98132  310.109
 4113.00    1.00383   1.00597  305.536
 4114.00    1.02141   1.03000   -1.000
 4115.00    1.05241   1.04523  293.738
 4116.00    1.04648   1.04335  289.467
 4117.00    1.04649   1.02204   -1.000
 4118.00    1.01185   0.99401   -1.000
 4119.00    0.98892   0.97665  296.305
 4120.00    1.00165   0.97846   -1.000
 4121.00    1.00499   0.98806   -1.000
 4122.00    0.99329   0.99442  303.968
 4123.00    0.99713   1.00194  301.306
 4124.00    1.01402   1.01320  301.247
 4125.00    1.03371   1.02106  297.604
 4126.00    1.05056   1.01599   -1.000
 4127.00    1.04122   0.99925   -1.000
 4128.00    1.01304   0.98354   -1.000
 4129.00    0.98317   0.97520  303.043
 4130.00    0.97460   0.95991   -1.000
 4131.00    0.95760   0.93225   -1.000
 4132.00    0.93562   0.90461   -1.000
 4133.00    0.89953   0.90196  321.888
 4134.00    0.92824   0.93257  330.881
 4135.00    0.98610   0.97932  329.893
 4136.00    1.02593   1.02113  317.865
 4137.00    1.05773   1.05029  302.319
 4138.00    1.06791   1.06793  293.292
 4139.00    1.07280   1.07464  288.727
 4140.00    1.07220   1.05922  284.644
 4141.00    1.03050   1.00987   -1.000
 4142.00    0.94112   0.93721  291.684
 4143.00    0.86242   0.88638   -1.000
 4144.00    0.87945   0.88977   -1.000
 4145.00    0.93320   0.93750  347.473
 4146.00    0.99055   0.99223  332.745
 4147.00    0.99867   1.01774   -1.000
 4148.00    1.01461   1.01355  302.948
 4149.00    0.99705   0.99785  301.133
 4150.00    0.99274   0.98822  307.517
 4151.00    0.97289   0.98637   -1.000
 4152.00    0.96283   0.98361   -1.000
 4153.00    0.95252   0.97437   -1.000
 4154.00    0.94056   0.96332   -1.000
 4155.00    0.95595   0.95900  318.380
 4156.00    1.20425   0.96868   -1.000
 4157.00    1.21629   0.98937   -1.000
 4158.00    0.74746   1.01675   -1.000
 4159.00    0.79710   1.04323   -1.000
 4160.00    1.04755   1.06193   -1.000
 4161.00    1.06666   1.07497   -1.000
 4162.00    1.06169   1.08427   -1.000
 4163.00    1.06949   1.08748   -1.000
 4164.00    1.05100   1.07937   -1.000
 4165.00    1.01596   1.06102   -1.000
 4166.00    0.98512   1.03668   -1.000
 4167.00    0.97417   1.02257   -1.000
 4168.00    0.97806   1.02638   -1.000
 4169.00    1.00022   1.03499   -1.000
 4170.00    0.99739   1.02381   -1.000
 4171.00    0.96173   0.98095   -1.000
 4172.00    0.91256   0.93364   -1.000
 4173.00    0.88462   0.91348   -1.000
 4174.00    0.89634   0.92772   -1.000
 4175.00    0.92976   0.95533   -1.000
 4176.00    0.95590   0.97128   -1.000
 4177.00    0.94014   0.97682   -1.000
 4178.00    0.93791   0.98568   -1.000
 4179.00    0.96394   0.99813   -1.000
 4180.00    0.97650   1.00529   -1.000
 4181.00    0.98125   1.00212   -1.000
 4182.00    0.95997   0.99933   -1.000
 4183.00    0.97605   1.01597   -1.000
 4184.00    1.01481   1.03688   -1.000
 4185.00    1.04789   1.03974  305.514
 4186.00    1.01848   1.01783  300.747
 4187.00    0.97717   0.99247   -1.000
 4188.00    0.95987   0.99268   -1.000
 4189.00    0.99220   1.01078   -1.000
 4190.00    1.00861   1.02612   -1.000
 4191.00    1.01717   1.03859   -1.000
 4192.00    1.03627   1.05378   -1.000
 4193.00    1.05156   1.06427   -1.000
 4194.00    1.03127   1.05266   -1.000
 4195.00    0.99599   1.01058   -1.000
 4196.00    0.94979   0.96453   -1.000
 4197.00    0.92044   0.93325   -1.000
 4198.00    0.91855   0.92254  330.104
 4199.00    0.94518   0.92282   -1.000
 4200.00    0.93713   0.92839  335.307
 4201.00    0.95238   0.93564   -1.000
 4202.00    0.96025   0.94657   -1.000
 4203.00    0.98778   0.96927   -1.000
 4204.00    1.00545   1.00349  323.035
 4205.00    1.01501   1.03695   -1.000
 4206.00    1.05096   1.06438   -1.000
 4207.00    1.09869   1.08647   -1.000
 4208.00    1.09648   1.09410  301.380
 4209.00    1.08143   1.08824   -1.000
 4210.00    1.07546   1.08254   -1.000
 4211.00    1.07090   1.08626   -1.000
 4212.00    1.06280   1.09088   -1.000
 4213.00    1.05742   1.07219   -1.000
 4214.00    0.99817   1.02927   -1.000
 4215.00    0.95011   0.99770   -1.000
 4216.00    0.98410   1.00319   -1.000
 4217.00    1.05329   1.05456  327.107
 4218.00    1.12001   1.11107  314.257
 4219.00    1.16078   1.15069  294.371
 4220.00    1.18045   1.16281   -1.000
 4221.00    1.17903   1.14867   -1.000
 4222.00    1.14135   1.10316   -1.000
 4223.00    1.05496   1.02869   -1.000
 4224.00    0.95679   0.92584   -1.000
 4225.00    0.85302   0.82602   -1.000
 4226.00    0.76823   0.76813  341.859
 4227.00    0.76567   0.79493   -1.000
 4228.00    0.88175   0.89643   -1.000
 4229.00    1.01500   1.02077  381.846
 4230.00    1.11185   1.09710   -1.000
 4231.00    1.13184   1.11412   -1.000
 4232.00    1.11861   1.09477   -1.000
 4233.00    1.08961   1.06389   -1.000
 4234.00    1.06035   1.03357   -1.000
 4235.00    1.03375   1.01486   -1.000
 4236.00    1.01594   1.00664  300.892
 4237.00    1.01696   1.01081  308.065
 4238.00    1.04161   1.03007   -1.000
 4239.00    1.07294   1.05696   -1.000
 4240.00    1.09663   1.08330   -1.000
 4241.00    1.10581   1.10734  298.290
 4242.00    1.13326   1.12729  292.583
 4243.00    1.16438   1.14883   -1.000
 4244.00    1.18068   1.17049  287.505
 4245.00    1.17652   1.17202  282.281
 4246.00    1.14370   1.13706  276.944
 4247.00    1.08830   1.08309  281.006
 4248.00    1.05411   1.03160   -1.000
 4249.00    1.03227   1.00422   -1.000
 4250.00    1.01694   1.00391   -1.000
 4251.00    1.03442   1.02738  314.822
 4252.00    1.06934   1.04810   -1.000
 4253.00    1.06197   1.04494   -1.000
 4254.00    1.04095   1.03302  296.373
 4255.00    1.04328   1.04240  299.023
 4256.00    1.09193   1.07884   -1.000
 4257.00    1.12987   1.09961   -1.000
 4258.00    1.09174   1.06879   -1.000
 4259.00    1.02486   1.01227   -1.000
 4260.00    0.98867   0.97933  301.133
 4261.00    0.99305   1.00574   -1.000
 4262.00    1.05253   1.07587   -1.000
 4263.00    1.13857   1.15186   -1.000
 4264.00    1.18267   1.19599   -1.000
 4265.00    1.19990   1.20351  277.748
 4266.00    1.19960   1.18793  271.963
 4267.00    1.16889   1.15634  271.910
 4268.00    1.10580   1.10595  276.933
 4269.00    1.05951   1.04222   -1.000
 4270.00    1.00990   0.96758   -1.000
 4271.00    0.92374   0.90965   -1.000
 4272.00    0.88793   0.88664  327.936
 4273.00    0.91542   0.90154   -1.000
 4274.00    0.95283   0.93962   -1.000
 4275.00    0.99820   0.99544  340.668
 4276.00    1.07354   1.06373   -1.000
 4277.00    1.13810   1.12675   -1.000
 4278.00    1.15265   1.14671  295.465
 4279.00    1.12231   1.12429  282.831
 4280.00    1.07716   1.08843   -1.000
 4281.00    1.05176   1.07659   -1.000
 4282.00    1.06616   1.08999   -1.000
 4283.00    1.09051   1.09771  306.957
 4284.00    1.07943   1.08733  302.445
 4285.00    1.04422   1.06604   -1.000
 4286.00    1.02198   1.04653   -1.000
 4287.00    1.02566   1.02684  313.919
 4288.00    0.99704   0.99273  321.554
 4289.00    0.93794   0.94949   -1.000
 4290.00    0.90497   0.93187   -1.000
 4291.00    0.95134   0.95919  355.999
 4292.00    1.02591   1.01169   -1.000
 4293.00    1.07156   1.04424   -1.000
 4294.00    1.06419   1.04206   -1.000
 4295.00    1.02930   1.02153  310.119
 4296.00    1.01797   0.99190   -1.000
 4297.00    0.98035   0.94226   -1.000
 4298.00    0.90100   0.87771   -1.000
 4299.00    0.80919   0.81889  344.508
 4300.00    0.78155   0.79095  375.076
 4301.00    0.80903   0.79496   -1.000
 4302.00    0.81395   0.81353  404.534
 4303.00    0.84112   0.82988   -1.000
 4304.00    0.86989   0.84040   -1.000
 4305.00    0.86775   0.83640   -1.000
 4306.00    0.83284   0.80938   -1.000
 4307.00    0.78385   0.77105   -1.000
 4308.00    0.75717   0.74692   -1.000
 4309.00    0.76349   0.75863   -1.000
 4310.00    0.80876   0.80151   -1.000
 4311.00    0.87512   0.86151   -1.000
 4312.00    0.93698   0.92185   -1.000
 4313.00    0.98428   0.98624  364.128
 4314.00    1.04611   1.07069   -1.000
 4315.00    1.13753   1.16883   -1.000
 4316.00    1.25691   1.26641   -1.000
 4317.00    1.33749   1.32718  284.540
 4318.00    1.33733   1.33838  263.812
 4319.00    1.31855   1.31636  255.465
 4320.00    1.26731   1.28174   -1.000
 4321.00    1.24510   1.23012  260.405
 4322.00    1.19219   1.15750   -1.000
 4323.00    1.10898   1.05812   -1.000
 4324.00    0.98773   0.96318   -1.000
 4325.00    0.92146   0.92456  312.221
 4326.00    0.95054   0.97634   -1.000
 4327.00    1.07678   1.08942   -1.000
 4328.00    1.20065   1.20460  326.324
 4329.00    1.25810   1.26345  291.413
 4330.00    1.26015   1.27437   -1.000
 4331.00    1.26593   1.27082  267.439
 4332.00    1.26557   1.27962   -1.000
 4333.00    1.28311   1.29816   -1.000
 4334.00    1.30863   1.30686  262.235
 4335.00    1.30374   1.28597   -1.000
 4336.00    1.26692   1.21745   -1.000
 4337.00    1.14575   1.11060   -1.000
 4338.00    1.04832   0.99305   -1.000
 4339.00    0.98140   0.91665   -1.000
 4340.00    0.94365   0.90323   -1.000
 4341.00    0.97730   0.95204   -1.000
 4342.00    1.07732   1.03890   -1.000
 4343.00    1.15058   1.12647   -1.000
 4344.00    1.19336   1.18761  309.627
 4345.00    1.23806   1.22686  291.546
 4346.00    1.26758   1.25547  282.884
 4347.00    1.27243   1.28300   -1.000
 4348.00    1.29708   1.30674   -1.000
 4349.00    1.31123   1.29707   -1.000
 4350.00    1.25845   1.23444   -1.000
 4351.00    1.15931   1.15430  265.152
 4352.00    1.09411   1.10964   -1.000
 4353.00    1.13609   1.13216  302.098
 4354.00    1.20538   1.19042   -1.000
 4355.00    1.24197   1.24363  291.225
 4356.00    1.27804   1.27333  278.050
 4357.00    1.30051   1.28003   -1.000
 4358.00    1.28251   1.26627   -1.000
 4359.00    1.24207   1.25398   -1.000
 4360.00    1.24393   1.26843   -1.000
 4361.00    1.30821   1.30145  274.191
 4362.00    1.33540   1.33354  268.285
 4363.00    1.33424   1.35604   -1.000
 4364.00    1.34558   1.37064   -1.000
 4365.00    1.37041   1.36906  256.524
 4366.00    1.34492   1.33850  253.550
 4367.00    1.28177   1.28904   -1.000
 4368.00    1.25313   1.25665  262.141
 4369.00    1.26552   1.25047   -1.000
 4370.00    1.27972   1.25383   -1.000
 4371.00    1.28865   1.24689   -1.000
 4372.00    1.26921   1.22057   -1.000
 4373.00    1.21333   1.17579   -1.000
 4374.00    1.13482   1.12998  272.490
 4375.00    1.12839   1.12118  284.276
 4376.00    1.18806   1.16051   -1.000
 4377.00    1.24940   1.22418   -1.000
 4378.00    1.29075   1.26499   -1.000
 4379.00    1.28135   1.26524   -1.000
 4380.00    1.27486   1.22585   -1.000
 4381.00    1.22184   1.14324   -1.000
 4382.00    1.11405   1.02271   -1.000
 4383.00    0.98437   0.92122   -1.000
 4384.00    0.91282   0.89926   -1.000
 4385.00    0.99376   0.96690   -1.000
 4386.00    1.11207   1.07421   -1.000
 4387.00    1.19008   1.14515   -1.000
 4388.00    1.21704   1.16308   -1.000
 4389.00    1.20679   1.15587   -1.000
 4390.00    1.18852   1.15481   -1.000
 4391.00    1.20531   1.17015   -1.000
 4392.00    1.23867   1.19134   -1.000
 4393.00    1.23435   1.20116   -1.000
 4394.00    1.21424   1.19916   -1.000
 4395.00    1.21874   1.21184  275.691
 4396.00    1.27102   1.25329   -1.000
 4397.00    1.33662   1.29186   -1.000
 4398.00    1.32354   1.29200   -1.000
 4399.00    1.26999   1.25289   -1.000
 4400.00    1.23550   1.21895   -1.000
 4401.00    1.23417   1.21068   -1.000
 4402.00    1.25869   1.20211   -1.000
 4403.00    1.21799   1.16135   -1.000
 4404.00    1.13425   1.10115   -1.000
 4405.00    1.09505   1.07225   -1.000
 4406.00    1.13113   1.09707   -1.000
 4407.00    1.18982   1.13978   -1.000
 4408.00    1.19945   1.18056   -1.000
 4409.00    1.21654   1.23019   -1.000
 4410.00    1.29257   1.29608  284.843
 4411.00    1.36048   1.35445  273.319
 4412.00    1.39341   1.36411   -1.000
 4413.00    1.36179   1.31732   -1.000
 4414.00    1.28133   1.24670   -1.000
 4415.00    1.21195   1.19167   -1.000
 4416.00    1.18979   1.19646  273.204
 4417.00    1.24987   1.25338  282.637
 4418.00    1.30586   1.32361   -1.000
 4419.00    1.34338   1.36819   -1.000
 4420.00    1.37063   1.37199  258.575
 4421.00    1.34123   1.33965  251.519
 4422.00    1.28413   1.30293   -1.000
 4423.00    1.27237   1.29065   -1.000
 4424.00    1.28201   1.29997   -1.000
 4425.00    1.29632   1.31291   -1.000
 4426.00    1.27223   1.31959   -1.000
 4427.00    1.26796   1.32651   -1.000
 4428.00    1.28639   1.32974   -1.000
 4429.00    1.28354   1.32430   -1.000
 4430.00    1.26540   1.31474   -1.000
 4431.00    1.27281   1.31401   -1.000
 4432.00    1.27910   1.31567   -1.000
 4433.00    1.26062   1.29180   -1.000
 4434.00    1.21252   1.24842   -1.000
 4435.00    1.17561   1.22805   -1.000
 4436.00    1.21893   1.26253   -1.000
 4437.00    1.29754   1.34248   -1.000
 4438.00    1.35803   1.41086   -1.000
 4439.00    1.40555   1.43150   -1.000
 4440.00    1.37440   1.39473   -1.000
 4441.00    1.30113   1.33309   -1.000
 4442.00    1.26785   1.28570   -1.000
 4443.00    1.25235   1.28431   -1.000
 4444.00    1.27942   1.32856   -1.000
 4445.00    1.35423   1.39075   -1.000
 4446.00    1.41493   1.43398   -1.000
 4447.00    1.42380   1.44536   -1.000
 4448.00    1.40510   1.44088   -1.000
 4449.00    1.41029   1.43665   -1.000
 4450.00    1.38614   1.42964   -1.000
 4451.00    1.37497   1.41846   -1.000
 4452.00    1.37398   1.39646   -1.000
 4453.00    1.34399   1.35452   -1.000
 4454.00    1.29991   1.29399  256.393
 4455.00    1.24786   1.24909  266.308
 4456.00    1.24395   1.24274  278.783
 4457.00    1.26101   1.25685  284.191
 4458.00    1.27895   1.26579   -1.000
 4459.00    1.26272   1.25996  273.915
 4460.00    1.24844   1.24964  274.334
 4461.00    1.23968   1.25024  275.812
 4462.00    1.26782   1.27616  278.785
 4463.00    1.31331   1.32355  281.251
 4464.00    1.35362   1.36565  275.318
 4465.00    1.37841   1.38399  264.197
 4466.00    1.37206   1.38198  258.178
 4467.00    1.36192   1.37028  258.050
 4468.00    1.35383   1.35643  258.243
 4469.00    1.33924   1.34895   -1.000
 4470.00    1.34067   1.36111   -1.000
 4471.00    1.38037   1.40070   -1.000
 4472.00    1.41514   1.44913   -1.000
 4473.00    1.45273   1.48828   -1.000
 4474.00    1.49417   1.51122   -1.000
 4475.00    1.50164   1.52388   -1.000
 4476.00    1.50877   1.54299   -1.000
 4477.00    1.53024   1.55791   -1.000
 4478.00    1.52800   1.53937   -1.000
 4479.00    1.46244   1.47798   -1.000
 4480.00    1.38512   1.40142   -1.000
 4481.00    1.34242   1.35934   -1.000
 4482.00    1.35405   1.37312   -1.000
 4483.00    1.40932   1.43579   -1.000
 4484.00    1.47439   1.50991   -1.000
 4485.00    1.52244   1.56069   -1.000
 4486.00    1.53309   1.56887   -1.000
 4487.00    1.51219   1.53479   -1.000
 4488.00    1.46609   1.47556   -1.000
 4489.00    1.41731   1.42923   -1.000
 4490.00    1.39330   1.42498   -1.000
 4491.00    1.43588   1.45608   -1.000
 4492.00    1.48925   1.48406  253.966
 4493.00    1.46496   1.47171  247.010
 4494.00    1.41412   1.43175   -1.000
 4495.00    1.38089   1.40507   -1.000
 4496.00    1.38446   1.41789   -1.000
 4497.00    1.43527   1.46249   -1.000
 4498.00    1.49930   1.50666  257.155
 4499.00    1.51438   1.52716   -1.000
 4500.00    1.50094   1.52226   -1.000
 4501.00    1.48180   1.51726   -1.000
 4502.00    1.48002   1.53667   -1.000
 4503.00    1.53208   1.57593   -1.000
 4504.00    1.58316   1.61780   -1.000
 4505.00    1.59801   1.63972   -1.000
 4506.00    1.58046   1.63321   -1.000
 4507.00    1.55838   1.61261   -1.000
 4508.00    1.55798   1.59824   -1.000
 4509.00    1.57880   1.59857   -1.000
 4510.00    1.58731   1.60588   -1.000
 4511.00    1.58387   1.60419   -1.000
 4512.00    1.55854   1.58232   -1.000
 4513.00    1.52992   1.55100   -1.000
 4514.00    1.50240   1.52716   -1.000
 4515.00    1.51600   1.51705  240.637
 4516.00    1.52700   1.51705  242.083
 4517.00    1.52381   1.51631  240.830
 4518.00    1.51634   1.51603  240.673
 4519.00    1.52345   1.53005  243.682
 4520.00    1.55547   1.55378  245.081
 4521.00    1.56362   1.56757  240.822
 4522.00    1.54463   1.55754   -1.000
 4523.00    1.50434   1.52905   -1.000
 4524.00    1.48311   1.49799   -1.000
 4525.00    1.44558   1.46496   -1.000
 4526.00    1.40595   1.42232   -1.000
 4527.00    1.35853   1.37306   -1.000
 4528.00    1.30511   1.33311   -1.000
 4529.00    1.32655   1.32161  269.023
 4530.00    1.34508   1.34084  272.201
 4531.00    1.38076   1.37570  270.163
 4532.00    1.41375   1.40063   -1.000
 4533.00    1.38898   1.39715  260.515
 4534.00    1.34313   1.37584   -1.000
 4535.00    1.32342   1.36894   -1.000
 4536.00    1.37421   1.40912   -1.000
 4537.00    1.49383   1.48172   -1.000
 4538.00    1.55096   1.54047   -1.000
 4539.00    1.56124   1.55483  241.293
 4540.00    1.52235   1.53452   -1.000
 4541.00    1.50355   1.51466   -1.000
 4542.00    1.49778   1.51376   -1.000
 4543.00    1.53077   1.52167  242.669
 4544.00    1.54977   1.52101   -1.000
 4545.00    0.51385   1.50853   -1.000
 4546.00   -0.01097   1.49697    0.000
 4547.00   -0.02338   1.48990   -2.000
 4548.00    0.97600   1.47678   -2.000
 4549.00    0.54347   1.45996   -2.000
 4550.00    0.84506   1.45583   -1.000
 4551.00    1.52586   1.47174   -1.000
 4552.00    1.47679   1.48719  254.722
 4553.00    1.45005   1.48023   -1.000
 4554.00    1.45796   1.46404  251.589
 4555.00    1.47842   1.46309   -1.000
 4556.00    1.50090   1.49366  257.894
 4557.00    1.55138   1.54744  254.046
 4558.00    1.59985   1.59443  244.774
 4559.00    1.59894   1.61912   -1.000
 4560.00    1.60282   1.62867   -1.000
 4561.00    1.61109   1.62631   -1.000
 4562.00    1.58624   1.60915   -1.000
 4563.00    1.57156   1.57331  231.944
 4564.00    1.53137   1.53419  237.305
 4565.00    1.49139   1.51760   -1.000
 4566.00    1.51909   1.53570   -1.000
 4567.00    1.56905   1.57752  244.793
 4568.00    1.61015   1.61517  238.589
 4569.00    1.60782   1.62292   -1.000
 4570.00    1.55695   1.60112   -1.000
 4571.00    1.51870   1.56948   -1.000
 4572.00    1.53391   1.55450   -1.000
 4573.00    1.57091   1.57239  244.527
 4574.00    1.60792   1.60621  242.889
 4575.00    1.60800   1.62663   -1.000
 4576.00    1.58553   1.62699   -1.000
 4577.00    1.58124   1.61401   -1.000
 4578.00    1.57244   1.58705   -1.000
 4579.00    1.52276   1.54575   -1.000
 4580.00    1.49451   1.50455  238.635
 4581.00    1.48712   1.48435  245.765
 4582.00    1.50047   1.48987  250.897
 4583.00    1.51511   1.50448   -1.000
 4584.00    1.51051   1.51216  246.824
 4585.00    1.49656   1.51173   -1.000
 4586.00    1.50806   1.51750  245.635
 4587.00    1.54813   1.54526  247.177
 4588.00    1.58486   1.58678  243.876
 4589.00    1.61316   1.61630  237.515
 4590.00    1.60579   1.61909   -1.000
 4591.00    1.57885   1.59744   -1.000
 4592.00    1.53725   1.56554   -1.000
 4593.00    1.52469   1.54079   -1.000
 4594.00    1.51388   1.53184   -1.000
 4595.00    1.52506   1.52873  244.241
 4596.00    1.53987   1.52898  242.209
 4597.00    1.54815   1.53768  240.293
 4598.00    1.55955   1.54929  239.617
 4599.00    1.54887   1.55559  239.113
 4600.00    1.53900   1.55538   -1.000
 4601.00    1.52538   1.55389   -1.000
 4602.00    1.54164   1.55676   -1.000
 4603.00    1.54570   1.56211   -1.000
 4604.00    1.55557   1.56336  241.017
 4605.00    1.56813   1.56497  238.298
 4606.00    1.57866   1.57952  238.595
 4607.00    1.61132   1.61396  238.233
 4608.00    1.64212   1.65855   -1.000
 4609.00    1.68648   1.69299  231.102
 4610.00    1.69795   1.70074  226.154
 4611.00    1.65377   1.68312   -1.000
 4612.00    1.63564   1.65815   -1.000
 4613.00    1.63702   1.64174  227.326
 4614.00    1.63714   1.64303  229.881
 4615.00    1.64980   1.65810  231.409
 4616.00    1.65336   1.67181   -1.000
 4617.00    1.65145   1.67672   -1.000
 4618.00    1.63886   1.67415   -1.000
 4619.00    1.63348   1.66941   -1.000
 4620.00    1.64183   1.67093   -1.000
 4621.00    1.66456   1.68153   -1.000
 4622.00    1.68179   1.69244  228.231
 4623.00    1.66891   1.69379   -1.000
 4624.00    1.66676   1.68668   -1.000
 4625.00    1.66776   1.67981  224.982
 4626.00    1.65844   1.67624   -1.000
 4627.00    1.65983   1.67586   -1.000
 4628.00    1.65748   1.67716   -1.000
 4629.00    1.65139   1.67924   -1.000
 4630.00    1.65086   1.68341   -1.000
 4631.00    1.66987   1.68917   -1.000
 4632.00    1.68223   1.68744  228.837
 4633.00    1.65302   1.67363   -1.000
 4634.00    1.63517   1.65434   -1.000
 4635.00    1.63528   1.64095  230.330
 4636.00    1.62564   1.62932  232.920
 4637.00    1.60234   1.61300  232.834
 4638.00    1.57520   1.59594   -1.000
 4639.00    1.57325   1.58626  237.691
 4640.00    1.60243   1.59314  238.775
 4641.00    1.64617   1.61724   -1.000
 4642.00    1.65665   1.64399   -1.000
 4643.00    1.66599   1.65249   -1.000
 4644.00    1.65338   1.63244   -1.000
 4645.00    1.60988   1.59257   -1.000
 4646.00    1.55214   1.54408  230.461
 4647.00    1.53301   1.51130   -1.000
 4648.00    1.55025   1.51366   -1.000
 4649.00    1.59712   1.54734   -1.000
 4650.00    1.61746   1.59572   -1.000
 4651.00    1.63401   1.63878  235.115
 4652.00    1.64602   1.65927  231.765
 4653.00    1.63863   1.65326  231.225
 4654.00    1.58952   1.62736   -1.000
 4655.00    1.57372   1.60140   -1.000
 4656.00    1.58501   1.59887   -1.000
 4657.00    1.61563   1.63044   -1.000
 4658.00    1.66449   1.68714   -1.000
 4659.00    1.73151   1.74122  232.376
 4660.00    1.75761   1.76518  223.507
 4661.00    1.73516   1.74962  218.282
 4662.00    1.69030   1.71171   -1.000
 4663.00    1.65439   1.67035   -1.000
 4664.00    1.63123   1.63584  225.665
 4665.00    1.61326   1.59429   -1.000
 4666.00    1.54893   1.53644   -1.000
 4667.00    1.47242   1.48222  234.551
 4668.00    1.45202   1.46308  244.301
 4669.00    1.49724   1.49754  254.556
 4670.00    1.58412   1.56117   -1.000
 4671.00    1.63422   1.61633   -1.000
 4672.00    1.65265   1.64406  237.752
 4673.00    1.64505   1.64865  231.093
 4674.00    1.63083   1.65209   -1.000
 4675.00    1.65160   1.66674  229.542
 4676.00    1.69773   1.68582   -1.000
 4677.00    1.70780   1.68772   -1.000
 4678.00    1.67727   1.66304   -1.000
 4679.00    1.61394   1.62658  223.941
 4680.00    1.58483   1.59398  228.604
 4681.00    1.58013   1.57922  233.179
 4682.00    1.58942   1.58730  237.084
 4683.00    1.62748   1.61284   -1.000
 4684.00    1.66657   1.63905   -1.000
 4685.00    1.68459   1.65326   -1.000
 4686.00    1.66750   1.65453   -1.000
 4687.00    1.65459   1.64780  228.317
 4688.00    1.65244   1.64087   -1.000
 4689.00    1.64952   1.63661   -1.000
 4690.00    1.65314   1.63461   -1.000
 4691.00    1.65146   1.63358   -1.000
 4692.00    1.65301   1.63652   -1.000
 4693.00    1.67552   1.65054   -1.000
 4694.00    1.70998   1.67374   -1.000
 4695.00    1.73584   1.69510   -1.000
 4696.00    1.75031   1.70179   -1.000
 4697.00    1.71065   1.68292   -1.000
 4698.00    1.65383   1.64338  218.908
 4699.00    1.61538   1.60451  224.871
 4700.00    1.61264   1.58344   -1.000
 4701.00    1.60562   1.57109   -1.000
 4702.00    1.59202   1.55901   -1.000
 4703.00    1.56641   1.55805  234.596
 4704.00    1.60349   1.57453   -1.000
 4705.00    1.64334   1.59791   -1.000
 4706.00    1.64607   1.60721   -1.000
 4707.00    1.60396   1.59601  232.362
 4708.00    1.58754   1.57910  235.084
 4709.00    1.57984   1.57745  239.750
 4710.00    1.59832   1.59963  242.278
 4711.00    1.65586   1.63243   -1.000
 4712.00    1.69490   1.65461   -1.000
 4713.00    1.69728   1.65098   -1.000
 4714.00    1.66536   1.63366   -1.000
 4715.00    1.64699   1.63410   -1.000
 4716.00    1.67672   1.66204   -1.000
 4717.00    1.71007   1.70503  231.893
 4718.00    1.73816   1.74414  227.629
 4719.00    1.74586   1.76985   -1.000
 4720.00    1.76001   1.78102   -1.000
 4721.00    1.75730   1.77861   -1.000
 4722.00    1.74723   1.76652   -1.000
 4723.00    1.73352   1.76037   -1.000
 4724.00    1.76346   1.76825  223.294
 4725.00    1.76928   1.76961  222.232
 4726.00    1.72927   1.74188  219.892
 4727.00    1.66570   1.68399   -1.000
 4728.00    1.59424   1.62083   -1.000
 4729.00    1.55824   1.58582   -1.000
 4730.00    1.59014   1.58769  238.848
 4731.00    1.62913   1.61347   -1.000
 4732.00    1.63177   1.64541  236.148
 4733.00    1.64620   1.67488   -1.000
 4734.00    1.68528   1.69495  231.497
 4735.00    1.71387   1.69873   -1.000
 4736.00    1.70000   1.69255  228.051
 4737.00    1.68023   1.69106  226.784
 4738.00    1.70204   1.70310  228.883
 4739.00    1.73345   1.72177   -1.000
 4740.00    1.72512   1.73006  226.715
 4741.00    1.70836   1.72678   -1.000
 4742.00    1.71273   1.72794  227.736
 4743.00    1.72414   1.73556  228.142
 4744.00    1.73627   1.74196  226.505
 4745.00    1.74676   1.75107  224.072
 4746.00    1.74860   1.76504  224.241
 4747.00    1.75351   1.78059   -1.000
 4748.00    1.76519   1.79381   -1.000
 4749.00    1.75199   1.80223   -1.000
 4750.00    1.75509   1.80613   -1.000
 4751.00    1.76392   1.80360   -1.000
 4752.00    1.73643   1.78984   -1.000
 4753.00    1.72234   1.76701   -1.000
 4754.00    1.69569   1.74443   -1.000
 4755.00    1.69433   1.72944   -1.000
 4756.00    1.69416   1.72623   -1.000
 4757.00    1.68678   1.73442   -1.000
 4758.00    1.70215   1.75019   -1.000
 4759.00    1.71659   1.76864   -1.000
 4760.00    1.72078   1.77948   -1.000
 4761.00    1.70125   1.76822   -1.000
 4762.00    1.64989   1.73483   -1.000
 4763.00    1.61673   1.69357   -1.000
 4764.00    1.60985   1.66360   -1.000
 4765.00    1.59204   1.64670   -1.000
 4766.00    1.59275   1.64000   -1.000
 4767.00    1.61810   1.65210   -1.000
 4768.00    1.67392   1.69090   27.963
 4769.00    1.70827   1.74407   23.594
 4770.00    1.71948   1.78323   23.078
 4771.00    1.71434   1.78947   22.734
 4772.00    1.70159   1.77863   22.734
 4773.00    1.71845   1.78016   22.913
 4774.00    1.73249   1.80505   23.117
 4775.00    1.75799   1.83781   22.902
 4776.00    1.77648   1.85686   22.432
 4777.00    1.77488   1.86332   22.239
 4778.00    1.77074   1.86360   22.241
 4779.00    1.74421   1.85524   22.302
 4780.00    1.71538   1.83887   22.439
 4781.00    1.70558   1.82148   22.681
 4782.00    1.70493   1.80430   22.830
 4783.00    1.69281   1.78624   22.895
 4784.00    1.69564   1.77286   23.000
 4785.00    1.70293   1.76659   23.178
 4786.00    1.68924   1.75867   23.192
 4787.00    1.67330   1.74661   23.258
 4788.00    1.67229   1.74101   23.473
 4789.00    1.68403   1.74241   23.622
 4790.00    1.69555   1.74761   23.616
 4791.00    1.71457   1.76175   23.510
 4792.00    1.73744   1.79179   23.367
 4793.00    1.76303   1.83625   23.135
 4794.00    1.80798   1.88486   22.771
 4795.00    1.83437   1.91949   22.278
 4796.00    1.82525   1.92678   21.880
 4797.00    1.79319   1.90307   21.764
 4798.00    1.74281   1.85703   21.949
 4799.00    1.72116   1.81214   22.367
 4800.00    1.73028   1.79591   22.793
 4801.00    1.75402   1.81545   23.084
 4802.00    1.78437   1.85630   22.940
 4803.00    1.78499   1.88908   22.504
 4804.00    1.76813   1.88760   22.162
 4805.00    1.74301   1.86026   22.151
 4806.00    1.72986   1.82924   22.416
 4807.00    1.73290   1.80955   22.708
 4808.00    1.73065   1.80278   22.925
 4809.00    1.73567   1.80923   22.947
 4810.00    1.76271   1.82657   22.894
 4811.00    1.76707   1.84528   22.796
 4812.00    1.77090   1.85624   22.603
 4813.00    1.78640   1.85924   22.434
 4814.00    1.80548   1.86182   22.314
 4815.00    1.79829   1.87125   22.280
 4816.00    1.81289   1.88907   22.230
 4817.00    1.81788   1.91108   22.154
 4818.00    1.83153   1.93105   22.022
 4819.00    1.84875   1.94339   21.884
 4820.00    1.84069   1.94666   21.789
 4821.00    1.81593   1.93390   21.771
 4822.00    1.78326   1.89740   21.771
 4823.00    1.73991   1.84799   21.937
 4824.00    1.73784   1.81302   22.465
 4825.00    1.76376   1.81274   22.921
 4826.00    1.80670   1.84148   22.944
 4827.00    1.80818   1.86663   22.583
 4828.00    1.79163   1.86823   22.224
 4829.00    1.77436   1.85497   22.255
 4830.00    1.76047   1.84037   22.498
 4831.00    1.74673   1.82399   22.658
 4832.00    1.74706   1.80821   22.672
 4833.00    1.75569   1.80719   22.850
 4834.00    1.79118   1.82669   22.916
 4835.00    1.80912   1.85568   22.605
 4836.00    1.80536   1.87338   22.292
 4837.00    1.79291   1.87394   22.179
 4838.00    1.78120   1.86065   22.200
 4839.00    1.74384   1.83559   22.297
 4840.00    1.71183   1.81014   22.574
 4841.00    1.72683   1.79823   22.967
 4842.00    1.75603   1.79914   23.041
 4843.00    1.77290   1.80444   22.998
 4844.00    1.79906   1.81742   22.892
 4845.00    1.81706   1.84520   22.728
 4846.00    1.81937   1.87317   22.509
 4847.00    1.80880   1.87753   22.174
 4848.00    1.77831   1.85430   22.023
 4849.00    1.76488   1.83200   22.386
 4850.00    1.78702   1.83483   22.745
 4851.00    1.80527   1.85108   22.795
 4852.00    1.79682   1.86054   22.520
 4853.00    1.78004   1.84757   22.423
 4854.00    1.73265   1.80589   22.525
 4855.00    1.69328   1.74886   22.709
 4856.00    1.67446   1.71031   23.312
 4857.00    1.68160   1.70255   23.986
 4858.00    1.66367   1.69632   24.049
 4859.00    1.58146   1.64057   23.827
 4860.00    1.43638   1.51551   24.331
 4861.00    1.33310   1.38999   26.196
 4862.00    1.35573   1.34343   29.163
 4863.00    1.47397   1.40677   30.935
 4864.00    1.58704   1.52524   29.556
 4865.00    1.64040   1.62990   27.021
 4866.00    1.68109   1.70082   25.292
 4867.00    1.70044   1.74629   24.306
 4868.00    1.71851   1.76907   23.740
 4869.00    1.71183   1.76679   23.479
 4870.00    1.67399   1.73076   23.361
 4871.00    1.62216   1.67104   23.514
 4872.00    1.59948   1.62582   24.103
 4873.00    1.64154   1.63872   24.715
 4874.00    1.69298   1.69754   24.643
 4875.00    1.70547   1.75152   24.013
 4876.00    1.72913   1.78196   23.546
 4877.00    1.74627   1.80132   23.327
 4878.00    1.76016   1.82903   23.193
 4879.00    1.78305   1.86172   23.107
 4880.00    1.77517   1.88058   22.815
 4881.00    1.75141   1.87291   22.554
 4882.00    1.73392   1.84780   22.677
 4883.00    1.74752   1.82832   23.027
 4884.00    1.74157   1.81536   23.210
 4885.00    1.70945   1.78996   23.167
 4886.00    1.68440   1.75739   23.253
 4887.00    1.68511   1.74275   23.574
 4888.00    1.69510   1.74472   23.746
 4889.00    1.67909   1.73740   23.662
 4890.00    1.64817   1.70541   23.610
 4891.00    1.62153   1.67114   23.891
 4892.00    1.66982   1.68688   24.395
 4893.00    1.77735   1.76841   24.364
 4894.00    1.86278   1.88206   23.525
 4895.00    1.91289   1.97467   22.447
 4896.00    1.92587   2.02085   21.714
 4897.00    1.92190   2.02703   21.266
 4898.00    1.90443   2.00927   21.110
 4899.00    1.86377   1.97857   21.131
 4900.00    1.83281   1.94596   21.513
 4901.00    1.83087   1.92450   22.020
 4902.00    1.82340   1.91180   22.317
 4903.00    1.80747   1.89908   22.273
 4904.00    1.81382   1.89514   22.274
 4905.00    1.84769   1.91744   22.505
 4906.00    1.88616   1.95801   22.362
 4907.00    1.88931   1.97467   21.921
 4908.00    1.85654   1.94683   21.691
 4909.00    1.79014   1.88899   21.822
 4910.00    1.76138   1.83128   22.290
 4911.00    1.78038   1.80525   22.919
 4912.00    1.77834   1.82075   23.287
 4913.00    1.82162   1.86352   23.094
 4914.00    1.86108   1.90886   22.692
 4915.00    1.87947   1.94409   22.360
 4916.00    1.89060   1.95572   22.067
 4917.00    1.84316   1.91958   21.853
 4918.00    1.73406   1.82272   21.898
 4919.00    1.63050   1.70000   22.533
 4920.00    1.59082   1.60650   23.686
 4921.00    1.62627   1.59250   24.861
 4922.00    1.69713   1.64995   25.331
 4923.00    1.74652   1.72508   24.719
 4924.00    1.76711   1.77253   23.830
 4925.00    1.77492   1.79915   23.371
 4926.00    1.82103   1.83711   23.287
 4927.00    1.86017   1.88964   23.049
 4928.00    1.88670   1.93758   22.504
 4929.00    1.92001   1.97645   22.061
 4930.00    1.93459   2.00340   21.817
 4931.00    1.91480   2.00553   21.657
 4932.00    1.88372   1.97386   21.523
 4933.00    1.84056   1.91692   21.664
 4934.00    1.81485   1.86733   22.179
 4935.00    1.81462   1.85535   22.950
 4936.00    1.80996   1.86054   23.174
 4937.00    1.77986   1.83873   22.848
 4938.00    1.72551   1.78584   22.745
 4939.00    1.71162   1.74879   23.273
 4940.00    1.76541   1.77397   23.934
 4941.00    1.83896   1.85050   23.910
 4942.00    1.89939   1.93512   23.212
 4943.00    1.93691   1.98748   22.452
 4944.00    1.95175   2.00283   21.973
 4945.00    1.93858   1.99298   21.730
 4946.00    1.90849   1.97845   21.701
 4947.00    1.91119   1.97886   21.829
 4948.00    1.94538   1.99781   21.901
 4949.00    1.95037   2.02326   21.755
 4950.00    1.95036   2.03910   21.507
 4951.00    1.96702   2.04219   21.401
 4952.00    1.96139   2.03342   21.317
 4953.00    1.93997   2.01797   21.384
 4954.00    1.91217   1.99775   21.526
 4955.00    1.87193   1.95713   21.753
 4956.00    1.78275   1.87521   22.022
 4957.00    1.70056   1.76438   22.540
 4958.00    1.69626   1.70332   23.583
 4959.00    1.76809   1.74914   24.604
 4960.00    1.86109   1.85909   24.435
 4961.00    1.91518   1.95886   23.214
 4962.00    1.91246   2.00291   22.290
 4963.00    1.91080   2.00060   21.988
 4964.00    1.88675   1.97316   22.034
 4965.00    1.85768   1.93001   22.196
 4966.00    1.83018   1.88595   22.441
 4967.00    1.80191   1.86356   22.871
 4968.00    1.79949   1.86216   23.214
 4969.00    1.81454   1.86972   23.286
 4970.00    1.83608   1.88584   23.232
 4971.00    1.86594   1.91256   23.083
 4972.00    1.88409   1.94754   22.852
 4973.00    1.90051   1.98185   22.607
 4974.00    1.91666   2.00309   22.342
 4975.00    1.92463   2.00675   22.118
 4976.00    1.91090   1.99437   22.001
 4977.00    1.87729   1.96526   22.099
 4978.00    1.84328   1.92731   22.316
 4979.00    1.81357   1.89478   22.604
 4980.00    1.78572   1.86698   22.960
 4981.00    1.74699   1.82695   23.265
 4982.00    1.69428   1.76454   23.584
 4983.00    1.66319   1.70029   24.256
 4984.00    1.68509   1.67805   25.053
 4985.00    1.73233   1.70991   25.247
 4986.00    1.78605   1.77960   24.876
 4987.00    1.84689   1.85576   24.227
 4988.00    1.87757   1.91220   23.475
 4989.00    1.87265   1.92655   22.854
 4990.00    1.85038   1.90874   22.734
 4991.00    1.83238   1.89096   22.999
 4992.00    1.84200   1.89069   23.264
 4993.00    1.85667   1.90270   23.329
 4994.00    1.86246   1.91370   23.170
 4995.00    1.85659   1.92321   23.044
 4996.00    1.86524   1.93710   23.014
 4997.00    1.87744   1.94487   22.921
 4998.00    1.85600   1.92854   22.805
 4999.00    1.81425   1.88671   22.882
 5000.00    1.78911   1.83337   23.150
 5001.00    1.78103   1.79930   23.582
 5002.00    1.79009   1.79287   23.924
 5003.00    1.80585   1.79741   24.009
 5004.00    1.80090   1.78897   23.839
 5005.00    1.75788   1.75745   23.662
 5006.00    1.71785   1.72332   23.879
 5007.00    1.73896   1.72349   24.428
 5008.00    1.81224   1.77504   24.689
 5009.00    1.85787   1.84178   24.261
 5010.00    1.84866   1.87507   23.550
 5011.00    1.81649   1.85355   23.181
 5012.00    1.75545   1.79207   23.350
 5013.00    1.69240   1.72648   23.957
 5014.00    1.67279   1.68825   24.816
 5015.00    1.70246   1.69456   25.488
 5016.00    1.73614   1.72517   25.542
 5017.00    1.76186   1.74997   25.079
 5018.00    1.77144   1.75814   24.542
 5019.00    1.77811   1.76644   24.336
 5020.00    1.78745   1.78649   24.317
 5021.00    1.79628   1.80193   24.112
 5022.00    1.78720   1.80531   23.893
 5023.00    1.78796   1.81264   23.923
 5024.00    1.82845   1.83730   23.992
 5025.00    1.85863   1.86654   23.902
 5026.00    1.84343   1.87614   23.677
 5027.00    1.83091   1.86174   23.493
 5028.00    1.82932   1.85155   23.537
 5029.00    1.84746   1.86700   23.653
 5030.00    1.88511   1.90346   23.520
 5031.00    1.92005   1.94672   23.131
 5032.00    1.95365   1.98712   22.772
 5033.00    1.96413   2.01407   22.414
 5034.00    1.93053   2.00735   22.128
 5035.00    1.86825   1.95921   22.090
 5036.00    1.81955   1.89527   22.624
 5037.00    1.79235   1.85614   23.487
 5038.00    1.76706   1.83492   24.022
 5039.00    1.73475   1.79372   24.184
 5040.00    1.66553   1.72040   24.424
 5041.00    1.61508   1.65442   25.212
 5042.00    1.66841   1.66071   26.240
 5043.00    1.78782   1.74924   26.531
 5044.00    1.87105   1.87451   25.564
 5045.00    1.98151   1.97874   24.057
 5046.00    1.72768   2.03263   -1.000
 5047.00    0.60481   2.02955   -1.000
 5048.00    0.10101   1.97795   -1.000
 5049.00    0.19508   1.90583   -1.000
 5050.00    1.19281   1.85201   -1.000
 5051.00    1.76339   1.83501   15.919
 5052.00    1.85835   1.84912   27.043
 5053.00    1.89578   1.88859   23.687
 5054.00    1.94525   1.94487   23.428
 5055.00    1.97289   1.99472   22.848
 5056.00    1.99088   2.02161   22.389
 5057.00    1.98667   2.03155   22.125
 5058.00    1.97636   2.03646   22.019
 5059.00    1.99162   2.04588   22.031
 5060.00    2.00840   2.06380   22.073
 5061.00    2.01423   2.08543   22.077
 5062.00    2.00925   2.09026   21.964
 5063.00    1.96148   2.05665   21.931
 5064.00    1.90229   1.98677   22.152
 5065.00    1.86874   1.91472   22.707
 5066.00    1.85530   1.88165   23.482
 5067.00    1.87446   1.88470   23.910
 5068.00    1.88888   1.89931   23.765
 5069.00    1.90342   1.91618   23.418
 5070.00    1.92541   1.93524   23.266
 5071.00    1.92000   1.94470   23.169
 5072.00    1.90127   1.93560   23.027
 5073.00    1.90021   1.92278   23.120
 5074.00    1.91827   1.92498   23.309
 5075.00    1.93645   1.93842   23.149
 5076.00    1.93303   1.95005   22.934
 5077.00    1.92020   1.94722   22.864
 5078.00    1.87540   1.91347   22.844
 5079.00    1.80126   1.84255   23.001
 5080.00    1.76249   1.76985   23.645
 5081.00    1.76890   1.75141   24.697
 5082.00    1.80100   1.78306   25.236
 5083.00    1.83080   1.82570   24.917
 5084.00    1.86528   1.86536   24.377
 5085.00    1.91373   1.90540   23.997
 5086.00    1.94694   1.94204   23.581
 5087.00    1.94362   1.96610   23.164
 5088.00    1.94370   1.97691   22.935
 5089.00    1.96059   1.98538   22.869
 5090.00    1.97681   1.99706   22.779
 5091.00    1.99417   2.01295   22.627
 5092.00    2.02621   2.03505   22.490
 5093.00    2.03530   2.05953   22.372
 5094.00    2.03112   2.07145   22.153
 5095.00    1.99136   2.05311   21.937
 5096.00    1.94840   2.00301   22.026
 5097.00    1.89508   1.93396   22.418
 5098.00    1.85144   1.86877   22.902
 5099.00    1.83429   1.83076   23.441
 5100.00    1.86628   1.84581   23.956
 5101.00    1.92824   1.90479   24.152
 5102.00    1.96157   1.96729   23.739
 5103.00    1.96745   1.99299   23.071
 5104.00    1.95611   1.98292   22.735
 5105.00    1.93212   1.95978   22.780
 5106.00    1.88951   1.93310   23.038
 5107.00    1.86048   1.90460   23.335
 5108.00    1.86642   1.88006   23.624
 5109.00    1.86762   1.86516   23.918
 5110.00    1.88212   1.86951   23.978
 5111.00    1.91347   1.89685   23.853
 5112.00    1.94021   1.94039   23.685
 5113.00    1.96570   1.98070   23.392
 5114.00    1.99368   2.00699   23.089
 5115.00    2.01012   2.02585   22.808
 5116.00    2.02944   2.04588   22.582
 5117.00    2.04766   2.06772   22.438
 5118.00    2.04432   2.08321   22.236
 5119.00    2.02941   2.07973   22.034
 5120.00    2.00325   2.05329   22.027
 5121.00    1.96122   2.01081   22.255
 5122.00    1.92187   1.95809   22.581
 5123.00    1.88582   1.90023   22.945
 5124.00    1.85012   1.85403   23.474
 5125.00    1.84682   1.83583   24.156
 5126.00    1.86462   1.84313   24.491
 5127.00    1.86773   1.85663   24.377
 5128.00    1.86522   1.86280   24.224
 5129.00    1.85985   1.86703   24.089
 5130.00    1.87223   1.88009   24.071
 5131.00    1.91006   1.90718   24.068
 5132.00    1.93788   1.93844   23.838
 5133.00    1.95963   1.96427   23.455
 5134.00    1.98067   1.98545   23.201
 5135.00    1.99086   2.00181   22.993
 5136.00    1.99044   2.00287   22.785
 5137.00    1.94640   1.97091   22.684
 5138.00    1.90175   1.91460   22.956
 5139.00    1.88159   1.87661   23.480
 5140.00    1.88845   1.87362   23.916
 5141.00    1.89145   1.88406   24.050
 5142.00    1.88185   1.88267   23.902
 5143.00    1.86888   1.87623   23.958
 5144.00    1.88450   1.88704   24.292
 5145.00    1.90481   1.90518   24.314
 5146.00    1.89764   1.89932   23.975
 5147.00    1.89159   1.87925   23.791
 5148.00    1.90516   1.87499   23.928
 5149.00    1.91355   1.89050   24.042
 5150.00    1.91284   1.90344   23.849
 5151.00    1.89774   1.89477   23.661
 5152.00    1.87168   1.87510   23.828
 5153.00    1.85925   1.86377   24.229
 5154.00    1.88016   1.86996   24.477
 5155.00    1.91678   1.89908   24.434
 5156.00    1.97756   1.94847   24.064
 5157.00    2.03866   2.00176   23.492
 5158.00    2.06091   2.03972   22.892
 5159.00    2.06253   2.05728   22.418
 5160.00    2.06145   2.05750   22.178
 5161.00    2.04699   2.04283   22.130
 5162.00    2.02555   2.01445   22.183
 5163.00    1.99248   1.97276   22.295
 5164.00    1.93245   1.91157   22.510
 5165.00    1.81886   1.81601   22.832
 5166.00    1.65429   1.67336   23.544
 5167.00    1.51464   1.51751   25.164
 5168.00    1.47637   1.44364   27.644
 5169.00    1.54697   1.48280   29.853
 5170.00    1.61386   1.56601   30.023
 5171.00    1.58148   1.57273   28.580
 5172.00    1.46574   1.48393   27.792
 5173.00    1.42813   1.42724   28.910
 5174.00    1.57294   1.49554   30.896
 5175.00    1.75529   1.66777   -1.000
 5176.00    1.88035   1.83223   27.856
 5177.00    1.94108   1.92286   25.313
 5178.00    1.96388   1.95536   24.029
 5179.00    1.95277   1.95750   23.578
 5180.00    1.89607   1.92891   23.471
 5181.00    1.78594   1.84172   23.620
 5182.00    1.61685   1.67835   24.263
 5183.00    1.45324   1.50222   25.736
 5184.00    1.42638   1.41236   28.378
 5185.00    1.57689   1.48705   -1.000
 5186.00    1.77898   1.67363   -1.000
 5187.00    1.90566   1.84463   27.782
 5188.00    1.96216   1.93718   25.142
 5189.00    1.97971   1.97076   23.937
 5190.00    1.97603   1.96792   23.579
 5191.00    1.92604   1.92413   23.456
 5192.00    1.86568   1.85141   23.600
 5193.00    1.85589   1.80719   24.198
 5194.00    1.89230   1.82158   24.911
 5195.00    1.92206   1.85583   24.997
 5196.00    1.95838   1.88688   24.624
 5197.00    1.99666   1.92255   24.237
 5198.00    2.01905   1.96713   23.884
 5199.00    2.04951   2.01116   23.444
 5200.00    2.07087   2.04027   23.020
 5201.00    2.06855   2.04680   22.768
 5202.00    2.04560   2.02841   22.698
 5203.00    1.99759   1.98395   22.818
 5204.00    1.94278   1.91243   23.163
 5205.00    1.88948   1.83190   23.663
 5206.00    1.85124   1.76946   24.344
 5207.00    1.85070   1.74016   -1.000
 5208.00    1.84980   1.73530   -1.000
 5209.00    1.83881   1.74766   25.523
 5210.00    1.88284   1.79459   25.673
 5211.00    1.97570   1.88235   -1.000
 5212.00    2.06058   1.97794   24.770
 5213.00    2.10891   2.04616   23.824
 5214.00    2.10658   2.05914   22.879
 5215.00    2.07572   2.02363   22.271
 5216.00    2.03312   1.97547   22.295
 5217.00    2.02262   1.96079   22.747
 5218.00    2.06714   1.99430   23.116
 5219.00    2.11610   2.05026   23.072
 5220.00    2.13772   2.09985   22.661
 5221.00    2.14048   2.12578   22.264
 5222.00    2.13392   2.11974   22.042
 5223.00    2.09667   2.07752   21.931
 5224.00    2.01274   2.00019   22.094
 5225.00    1.91784   1.89482   22.649
 5226.00    1.85557   1.79406   23.512
 5227.00    1.86145   1.75143   -1.000
 5228.00    1.94063   1.79710   -1.000
 5229.00    2.04610   1.90643   -1.000
 5230.00    2.11773   2.01775   -1.000
 5231.00    2.13234   2.06498   22.996
 5232.00    2.10232   2.04168   22.422
 5233.00    2.06112   1.98483   22.277
 5234.00    2.03954   1.95230   22.574
 5235.00    2.07949   1.97629   23.007
 5236.00    2.13596   2.03808   23.108
 5237.00    2.17029   2.10638   22.723
 5238.00    2.19136   2.15009   22.177
 5239.00    2.18787   2.16345   21.835
 5240.00    2.19137   2.16110   21.746
 5241.00    2.20253   2.15469   21.791
 5242.00    2.19945   2.14916   21.790
 5243.00    2.20549   2.15198   21.688
 5244.00    2.21743   2.16291   21.666
 5245.00    2.19028   2.16185   21.651
 5246.00    2.12451   2.12541   21.611
 5247.00    2.06839   2.06386   21.886
 5248.00    2.05307   2.01728   22.502
 5249.00    2.06154   1.99768   23.094
 5250.00    2.06238   1.98885   23.310
 5251.00    2.06059   1.99048   23.347
 5252.00    2.07127   2.01135   23.461
 5253.00    2.08896   2.03447   23.441
 5254.00    2.09982   2.04059   23.181
 5255.00    2.11464   2.03996   22.915
 5256.00    2.15321   2.06637   22.843
 5257.00    2.20950   2.13400   22.741
 5258.00    2.26216   2.20043   22.328
 5259.00    2.26205   2.22472   21.743
 5260.00    2.20661   2.19466   21.415
 5261.00    2.12262   2.11661   21.491
 5262.00    2.02516   2.00842   21.956
 5263.00    1.93874   1.89775   22.784
 5264.00    1.87621   1.80410   23.837
 5265.00    1.84767   1.74886   24.775
 5266.00    1.86391   1.74210   -1.000
 5267.00    1.89382   1.76985   -1.000
 5268.00    1.89247   1.77662   -1.000
 5269.00    1.83254   1.72857   -1.000
 5270.00    1.81177   1.68464   -1.000
 5271.00    1.89566   1.71936   -1.000
 5272.00    2.01399   1.83934   -1.000
 5273.00    2.07161   1.95453   -1.000
 5274.00    2.08135   1.99139   23.581
 5275.00    2.09826   1.98974   -1.000
 5276.00    2.13067   2.01295   -1.000
 5277.00    2.19671   2.08305   -1.000
 5278.00    2.26418   2.16476   22.694
 5279.00    2.27021   2.20152   22.023
 5280.00    2.22574   2.17758   21.486
 5281.00    2.16690   2.11713   21.439
 5282.00    2.12109   2.05434   21.832
 5283.00    2.09782   2.01257   22.397
 5284.00    2.11716   2.01876   22.869
 5285.00    2.22622   2.08332   -1.000
 5286.00    2.31882   2.18051   -1.000
 5287.00    2.32132   2.24997   22.180
 5288.00    2.30773   2.27285   21.483
 5289.00    2.31439   2.27679   21.139
 5290.00    2.32780   2.28421   21.169
 5291.00    2.32994   2.29263   21.213
 5292.00    2.32486   2.28737   21.128
 5293.00    2.31794   2.26843   21.052
 5294.00    2.29748   2.24651   21.118
 5295.00    2.24782   2.20925   21.296
 5296.00    2.16844   2.13597   21.552
 5297.00    2.09468   2.04415   22.031
 5298.00    2.06214   1.98330   22.798
 5299.00    2.09441   1.99233   23.513
 5300.00    2.15731   2.04731   -1.000
 5301.00    2.18994   2.09450   23.175
 5302.00    2.21100   2.12694   22.677
 5303.00    2.25778   2.17017   22.437
 5304.00    2.31538   2.23240   22.216
 5305.00    2.34774   2.28742   21.728
 5306.00    2.34475   2.30117   21.253
 5307.00    2.32222   2.28428   21.082
 5308.00    2.30990   2.27193   21.203
 5309.00    2.33479   2.28323   21.403
 5310.00    2.35987   2.30875   21.379
 5311.00    2.37512   2.32098   21.176
 5312.00    2.36488   2.31230   21.007
 5313.00    2.34281   2.29423   20.974
 5314.00    2.34448   2.27312   21.061
 5315.00    2.33546   2.24893   21.165
 5316.00    2.31194   2.22321   21.295
 5317.00    2.30579   2.20608   21.488
 5318.00    2.30228   2.20979   21.688
 5319.00    2.30453   2.22438   21.762
 5320.00    2.30620   2.23170   21.657
 5321.00    2.30164   2.22625   21.535
 5322.00    2.27777   2.20480   21.554
 5323.00    2.23897   2.16415   21.684
 5324.00    2.20544   2.11971   21.903
 5325.00    2.18957   2.08813   22.244
 5326.00    2.13432   2.04617   22.522
 5327.00    2.02957   1.95830   22.588
 5328.00    1.93755   1.85375   22.966
 5329.00    1.94562   1.81794   -1.000
 5330.00    2.07316   1.90822   -1.000
 5331.00    2.20085   2.05057   -1.000
 5332.00    2.25014   2.14643   -1.000
 5333.00    2.27149   2.18616   22.531
 5334.00    2.30922   2.21116   22.131
 5335.00    2.33310   2.24274   21.925
 5336.00    2.32553   2.26664   21.686
 5337.00    2.30667   2.26389   21.532
 5338.00    2.28648   2.23457   21.588
 5339.00    2.24783   2.17817   21.735
 5340.00    2.18679   2.10941   21.936
 5341.00    2.16390   2.07130   22.375
 5342.00    2.21341   2.09978   -1.000
 5343.00    2.28501   2.16225   -1.000
 5344.00    2.31677   2.20497   -1.000
 5345.00    2.30548   2.21070   21.903
 5346.00    2.28948   2.19524   21.761
 5347.00    2.26683   2.17558   21.861
 5348.00    2.25402   2.15510   22.006
 5349.00    2.24929   2.13972   22.126
 5350.00    2.26117   2.15259   22.291
 5351.00    2.30240   2.19815   22.404
 5352.00    2.34914   2.24941   22.202
 5353.00    2.37474   2.28806   21.738
 5354.00    2.38995   2.31496   21.374
 5355.00    2.40734   2.34392   21.238
 5356.00    2.42713   2.37330   21.114
 5357.00    2.44488   2.38758   20.880
 5358.00    2.44789   2.38734   20.678
 5359.00    2.44185   2.37946   20.634
 5360.00    2.42330   2.36019   20.666
 5361.00    2.38165   2.32713   20.725
 5362.00    2.34576   2.29106   20.905
 5363.00    2.32318   2.26068   21.221
 5364.00    2.30598   2.23627   21.553
 5365.00    2.29027   2.21614   21.766
 5366.00    2.28006   2.20145   21.898
 5367.00    2.28038   2.19736   22.027
 5368.00    2.26848   2.18815   22.037
 5369.00    2.23047   2.14367   22.003
 5370.00    2.16707   2.06782   22.142
 5371.00    2.13484   2.00750   -1.000
 5372.00    2.18256   2.01918   -1.000
 5373.00    2.27951   2.11094   -1.000
 5374.00    2.36658   2.22390   -1.000
 5375.00    2.40533   2.30405   -1.000
 5376.00    2.40904   2.32995   21.283
 5377.00    2.40597   2.32352   21.000
 5378.00    2.40664   2.31454   20.989
 5379.00    2.40250   2.31152   21.025
 5380.00    2.37477   2.30523   21.051
 5381.00    2.35237   2.28519   21.143
 5382.00    2.35807   2.25847   21.322
 5383.00    2.35455   2.24251   21.535
 5384.00    2.35018   2.24850   21.682
 5385.00    2.36886   2.27087   21.711
 5386.00    2.39270   2.29267   21.639
 5387.00    2.39089   2.29759   21.454
 5388.00    2.35772   2.27878   21.333
 5389.00    2.31844   2.24287   21.382
 5390.00    2.29234   2.20275   21.551
 5391.00    2.27274   2.17356   21.837
 5392.00    2.26726   2.15890   -1.000
 5393.00    2.27400   2.15478   -1.000
 5394.00    2.26465   2.15394   -1.000
 5395.00    2.24296   2.14001   -1.000
 5396.00    2.20912   2.10307   -1.000
 5397.00    2.18508   2.06423   -1.000
 5398.00    2.21323   2.06625   -1.000
 5399.00    2.27237   2.11446   -1.000
 5400.00    2.30936   2.17474   -1.000
 5401.00    2.31733   2.21562   -1.000
 5402.00    2.30712   2.22517   21.886
 5403.00    2.26944   2.19203   21.876
 5404.00    2.19496   2.11411   22.002
 5405.00    2.12670   2.02049   22.477
 5406.00    2.12125   1.97660   -1.000
 5407.00    2.16596   2.01064   -1.000
 5408.00    2.20544   2.06673   -1.000
 5409.00    2.21333   2.09458   -1.000
 5410.00    2.21449   2.09420   -1.000
 5411.00    2.25224   2.11536   -1.000
 5412.00    2.32093   2.17863   -1.000
 5413.00    2.36752   2.23763   -1.000
 5414.00    2.36342   2.26224   22.027
 5415.00    2.34944   2.26893   21.689
 5416.00    2.36729   2.28752   21.615
 5417.00    2.39111   2.32032   21.635
 5418.00    2.38931   2.33560   21.541
 5419.00    2.36894   2.31939   21.388
 5420.00    2.34758   2.29226   21.386
 5421.00    2.34561   2.27587   21.558
 5422.00    2.35164   2.27246   21.726
 5423.00    2.33530   2.26095   21.722
 5424.00    2.31682   2.23890   21.627
 5425.00    2.32286   2.24434   21.771
 5426.00    2.35774   2.28898   22.030
 5427.00    2.38899   2.32914   21.966
 5428.00    2.35570   2.30698   21.633
 5429.00    2.27760   2.22169   21.519
 5430.00    2.24230   2.15259   21.915
 5431.00    2.26510   2.14707   -1.000
 5432.00    2.28123   2.17478   -1.000
 5433.00    2.26207   2.17977   22.668
 5434.00    2.23938   2.14603   22.478
 5435.00    2.23931   2.11906   -1.000
 5436.00    2.26347   2.13735   -1.000
 5437.00    2.31563   2.20183   -1.000
 5438.00    2.38403   2.28738   22.717
 5439.00    2.44361   2.35989   22.146
 5440.00    2.47326   2.40359   21.616
 5441.00    2.48541   2.41940   21.259
 5442.00    2.48297   2.42106   21.039
 5443.00    2.45501   2.40958   20.950
 5444.00    2.40146   2.36742   20.940
 5445.00    2.31687   2.28462   21.070
 5446.00    2.23381   2.18252   21.500
 5447.00    2.20752   2.12333   22.271
 5448.00    2.25731   2.14360   -1.000
 5449.00    2.33421   2.22319   -1.000
 5450.00    2.39101   2.30616   22.756
 5451.00    2.41227   2.34248   22.059
 5452.00    2.39507   2.33447   21.686
 5453.00    2.35874   2.29545   21.618
 5454.00    2.28774   2.22660   21.734
 5455.00    2.22081   2.15059   22.113
 5456.00    2.23547   2.12126   -1.000
 5457.00    2.30391   2.17086   -1.000
 5458.00    2.37180   2.27151   -1.000
 5459.00    2.41115   2.34250   22.637
 5460.00    2.40108   2.34884   21.933
 5461.00    2.36030   2.30702   21.618
 5462.00    2.31487   2.24824   21.732
 5463.00    2.29634   2.20888   22.093
 5464.00    2.32466   2.21099   -1.000
 5465.00    2.36014   2.24591   -1.000
 5466.00    2.37567   2.28170   22.523
 5467.00    2.38205   2.30514   22.236
 5468.00    2.39262   2.31879   22.068
 5469.00    2.39647   2.31935   21.888
 5470.00    2.38563   2.30487   21.725
 5471.00    2.37329   2.28408   21.811
 5472.00    2.36702   2.26581   22.042
 5473.00    2.35355   2.25056   -1.000
 5474.00    2.31937   2.22813   22.277
 5475.00    2.27372   2.18591   22.459
 5476.00    2.23344   2.13046   -1.000
 5477.00    2.22262   2.09588   -1.000
 5478.00    2.26551   2.12766   -1.000
 5479.00    2.32655   2.19870   -1.000
 5480.00    2.33471   2.23531   -1.000
 5481.00    2.29664   2.21779   22.512
 5482.00    2.28888   2.18844   22.438
 5483.00    2.32855   2.20483   -1.000
 5484.00    2.37610   2.26656   -1.000
 5485.00    2.41365   2.32258   22.535
 5486.00    2.41285   2.33402   22.087
 5487.00    2.36975   2.30082   21.781
 5488.00    2.33107   2.26314   21.830
 5489.00    2.32731   2.25196   22.119
 5490.00    2.35183   2.27102   22.334
 5491.00    2.37404   2.29806   22.383
 5492.00    2.39113   2.31175   22.290
 5493.00    2.40098   2.30990   22.122
 5494.00    2.40071   2.30405   22.006
 5495.00    2.40503   2.30464   22.002
 5496.00    2.39735   2.30342   22.035
 5497.00    2.38350   2.29269   22.034
 5498.00    2.39572   2.29338   22.123
 5499.00    2.42504   2.31527   -1.000
 5500.00    2.43127   2.32710   -1.000
 5501.00    2.40471   2.30580   22.081
 5502.00    2.37554   2.26609   -1.000
 5503.00    2.37640   2.24445   -1.000
 5504.00    2.39139   2.24973   -1.000
 5505.00    2.37445   2.24818   -1.000
 5506.00    2.34201   2.22887   -1.000
 5507.00    2.34294   2.21807   -1.000
 5508.00    2.37303   2.23753   -1.000
 5509.00    2.39226   2.27587   -1.000
 5510.00    2.38450   2.28985   22.420
 5511.00    2.35233   2.26140   22.200
 5512.00    2.30703   2.21170   22.253
 5513.00    2.28248   2.17282   -1.000
 5514.00    2.29769   2.17029   -1.000
 5515.00    2.34144   2.19839   -1.000
 5516.00    2.38817   2.23895   -1.000
 5517.00    2.42478   2.28165   -1.000
 5518.00    2.45418   2.32489   -1.000
 5519.00    2.47962   2.36368   -1.000
 5520.00    2.49153   2.38491   -1.000
 5521.00    2.49173   2.38262   -1.000
 5522.00    2.48456   2.37372   -1.000
 5523.00    2.47678   2.37030   -1.000
 5524.00    2.46323   2.36710   21.601
 5525.00    2.42567   2.34926   21.657
 5526.00    2.37810   2.30412   21.743
 5527.00    2.32759   2.24116   21.969
 5528.00    2.29186   2.18909   22.391
 5529.00    2.31151   2.18888   -1.000
 5530.00    2.37615   2.24135   -1.000
 5531.00    2.42052   2.30538   -1.000
 5532.00    2.44235   2.33885   -1.000
 5533.00    2.44176   2.33510   -1.000
 5534.00    2.42336   2.31658   -1.000
 5535.00    2.41457   2.30100   -1.000
 5536.00    2.40852   2.29512   -1.000
 5537.00    2.42108   2.30151   -1.000
 5538.00    2.44613   2.31686   -1.000
 5539.00    2.46888   2.33862   -1.000
 5540.00    2.48393   2.36788   -1.000
 5541.00    2.48818   2.39107   21.758
 5542.00    2.48131   2.38956   21.561
 5543.00    2.46153   2.36613   21.491
 5544.00    2.45020   2.34377   -1.000
 5545.00    2.45336   2.33676   -1.000
 5546.00    2.46109   2.34228   -1.000
 5547.00    2.48304   2.35758   -1.000
 5548.00    2.51549   2.38546   -1.000
 5549.00    2.53758   2.41786   -1.000
 5550.00    2.54060   2.43829   -1.000
 5551.00    2.53717   2.44111   21.430
 5552.00    2.53088   2.42735   -1.000
 5553.00    2.49924   2.39985   21.367
 5554.00    2.46421   2.37215   21.529
 5555.00    2.47176   2.36197   -1.000
 5556.00    2.49434   2.36809   -1.000
 5557.00    2.50105   2.37736   -1.000
 5558.00    2.49239   2.37947   -1.000
 5559.00    2.48040   2.37932   21.839
 5560.00    2.48149   2.38241   21.809
 5561.00    2.47842   2.37873   21.784
 5562.00    2.46670   2.36016   -1.000
 5563.00    2.45578   2.33744   -1.000
 5564.00    2.43357   2.32258   -1.000
 5565.00    2.41702   2.31739   -1.000
 5566.00    2.42058   2.31390   -1.000
 5567.00    2.42863   2.30864   -1.000
 5568.00    2.43331   2.30628   -1.000
 5569.00    2.42904   2.30993   -1.000
 5570.00    2.43318   2.31763   -1.000
 5571.00    2.43528   2.32228   -1.000
 5572.00    2.41657   2.31900   -1.000
 5573.00    2.40520   2.31290   22.399
 5574.00    2.42376   2.31801   -1.000
 5575.00    2.41682   2.34336   22.421
 5576.00    2.27051   2.37048   22.239
 5577.00    1.88504   2.38020   -1.000
 5578.00    1.37910   2.38487   -1.000
 5579.00    1.46229   2.39542   -1.000
 5580.00    2.44971   2.40366   21.434
 5581.00    3.28875   2.40399   -1.000
 5582.00    3.19336   2.39373   -1.000
 5583.00    2.73721   2.37977   -1.000
 5584.00    2.52611   2.36670   -1.000
 5585.00    2.45369   2.33469   -1.000
 5586.00    2.37825   2.27106   -1.000
 5587.00    2.30583   2.19506   -1.000
 5588.00    2.27643   2.14258   -1.000
 5589.00    2.29013   2.14036   -1.000
 5590.00    2.32577   2.17834   -1.000
 5591.00    2.37275   2.23015   -1.000
 5592.00    2.39844   2.26467   -1.000
 5593.00    2.39539   2.27550   -1.000
 5594.00    2.39079   2.28216   -1.000
 5595.00    2.41258   2.30910   -1.000
 5596.00    2.45476   2.35299   -1.000
 5597.00    2.45493   2.37261   22.642
 5598.00    2.41628   2.34920   22.377
 5599.00    2.38813   2.30483   22.404
 5600.00    2.36659   2.26500   -1.000
 5601.00    2.34821   2.23586   -1.000
 5602.00    2.33974   2.21926   -1.000
 5603.00    2.35755   2.23247   -1.000
 5604.00    2.41960   2.29239   -1.000
 5605.00    2.49789   2.37924   -1.000
 5606.00    2.54853   2.44911   -1.000
 5607.00    2.56696   2.48277   22.070
 5608.00    2.56275   2.48786   21.697
 5609.00    2.55927   2.48231   21.560
 5610.00    2.57155   2.48073   21.566
 5611.00    2.57429   2.49023   21.608
 5612.00    2.56933   2.49543   21.619
 5613.00    2.52867   2.46578   21.570
 5614.00    2.43339   2.38403   21.586
 5615.00    2.36488   2.27865   21.873
 5616.00    2.36184   2.22195   -1.000
 5617.00    2.40548   2.24335   -1.000
 5618.00    2.45598   2.30852   -1.000
 5619.00    2.47899   2.35517   -1.000
 5620.00    2.49393   2.37311   -1.000
 5621.00    2.50450   2.39131   -1.000
 5622.00    2.50233   2.40373   -1.000
 5623.00    2.47125   2.37977   22.117
 5624.00    2.42366   2.32617   22.110
 5625.00    2.41512   2.28143   -1.000
 5626.00    2.44586   2.28687   -1.000
 5627.00    2.48347   2.33576   -1.000
 5628.00    2.51390   2.38770   -1.000
 5629.00    2.54468   2.42818   -1.000
 5630.00    2.56896   2.45911   -1.000
 5631.00    2.57595   2.47484   -1.000
 5632.00    2.56295   2.47145   21.752
 5633.00    2.54133   2.45394   21.683
 5634.00    2.52554   2.42949   21.649
 5635.00    2.51620   2.40246   -1.000
 5636.00    2.49623   2.37551   -1.000
 5637.00    2.47500   2.35394   -1.000
 5638.00    2.46683   2.34746   -1.000
 5639.00    2.46676   2.35425   -1.000
 5640.00    2.47366   2.35813   -1.000
 5641.00    2.46678   2.35032   -1.000
 5642.00    2.45422   2.34090   -1.000
 5643.00    2.46738   2.34708   -1.000
 5644.00    2.49266   2.36640   -1.000
 5645.00    2.50233   2.38411   -1.000
 5646.00    2.50035   2.39752   -1.000
 5647.00    2.50538   2.40729   -1.000
 5648.00    2.51869   2.40705   -1.000
 5649.00    2.51969   2.39638   -1.000
 5650.00    2.52032   2.38937   -1.000
 5651.00    2.53991   2.39863   -1.000
 5652.00    2.55346   2.41856   -1.000
 5653.00    2.54997   2.42494   -1.000
 5654.00    2.52849   2.40801   -1.000
 5655.00    2.50137   2.38454   -1.000
 5656.00    2.46569   2.35961   -1.000
 5657.00    2.41336   2.31922   22.170
 5658.00    2.36758   2.26457   -1.000
 5659.00    2.36377   2.22875   -1.000
 5660.00    2.40756   2.24720   -1.000
 5661.00    2.43681   2.29400   -1.000
 5662.00    2.44559   2.31499   -1.000
 5663.00    2.45907   2.32322   -1.000
 5664.00    2.48580   2.35412   -1.000
 5665.00    2.52001   2.39189   -1.000
 5666.00    2.50912   2.40582   -1.000
 5667.00    2.48027   2.39092   22.231
 5668.00    2.47139   2.36909   -1.000
 5669.00    2.48208   2.36438   -1.000
 5670.00    2.49471   2.37669   -1.000
 5671.00    2.51483   2.39885   -1.000
 5672.00    2.54938   2.43128   -1.000
 5673.00    2.57650   2.46613   -1.000
 5674.00    2.56853   2.48599   21.968
 5675.00    2.56696   2.48928   21.750
 5676.00    2.58074   2.48625   21.645
 5677.00    2.58756   2.48545   -1.000
 5678.00    2.58769   2.48234   -1.000
 5679.00    2.57901   2.46818   -1.000
 5680.00    2.56886   2.44671   -1.000
 5681.00    2.54634   2.42283   -1.000
 5682.00    2.50730   2.39240   -1.000
 5683.00    2.48367   2.36321   -1.000
 5684.00    2.49211   2.35895   -1.000
 5685.00    2.50456   2.37362   -1.000
 5686.00    2.48779   2.37779   -1.000
 5687.00    2.46662   2.36561   -1.000
 5688.00    2.46648   2.35537   -1.000
 5689.00    2.48144   2.36721   -1.000
 5690.00    2.51506   2.40118   -1.000
 5691.00    2.54954   2.43888   -1.000
 5692.00    2.57781   2.46698   -1.000
 5693.00    2.60143   2.48082   -1.000
 5694.00    2.59809   2.48054   -1.000
 5695.00    2.58755   2.47368   -1.000
 5696.00    2.58752   2.46627   -1.000
 5697.00    2.57299   2.45324   -1.000
 5698.00    2.54535   2.43037   -1.000
 5699.00    2.51587   2.40409   -1.000
 5700.00    2.47634   2.38177   -1.000
 5701.00    2.45054   2.36139   22.377
 5702.00    2.46032   2.35075   -1.000
 5703.00    2.48509   2.36460   -1.000
 5704.00    2.50850   2.38761   -1.000
 5705.00    2.49105   2.39164   -1.000
 5706.00    2.44204   2.36607   22.359
 5707.00    2.39196   2.32152   22.416
 5708.00    2.35641   2.28158   22.659
 5709.00    2.35077   2.25486   -1.000
 5710.00    2.35202   2.24297   -1.000
 5711.00    2.37223   2.25305   -1.000
 5712.00    2.41480   2.28617   -1.000
 5713.00    2.48179   2.34396   -1.000
 5714.00    2.54609   2.41003   -1.000
 5715.00    2.57238   2.45212   -1.000
 5716.00    2.57671   2.47098   -1.000
 5717.00    2.58505   2.48273   -1.000
 5718.00    2.59537   2.49287   -1.000
 5719.00    2.60782   2.50533   -1.000
 5720.00    2.62176   2.52266   -1.000
 5721.00    2.63156   2.54146   21.671
 5722.00    2.64998   2.55749   21.546
 5723.00    2.67407   2.56902   -1.000
 5724.00    2.67779   2.57214   -1.000
 5725.00    2.65133   2.55814   21.404
 5726.00    2.60961   2.52701   21.414
 5727.00    2.58159   2.49650   21.532
 5728.00    2.59188   2.49033   -1.000
 5729.00    2.61095   2.50740   -1.000
 5730.00    2.60492   2.51675   21.986
 5731.00    2.58863   2.50579   21.838
 5732.00    2.59261   2.49515   -1.000
 5733.00    2.61966   2.50769   -1.000
 5734.00    2.64300   2.54054   -1.000
 5735.00    2.65153   2.56229   21.761
 5736.00    2.64639   2.55927   21.574
 5737.00    2.64103   2.54417   -1.000
 5738.00    2.64360   2.53224   -1.000
 5739.00    2.63253   2.53048   -1.000
 5740.00    2.61877   2.53215   21.640
 5741.00    2.62698   2.52981   -1.000
 5742.00    2.62987   2.52394   -1.000
 5743.00    2.63385   2.52366   -1.000
 5744.00    2.65610   2.53862   -1.000
 5745.00    2.66366   2.55999   -1.000
 5746.00    2.65460   2.56454   21.626
 5747.00    2.63521   2.54199   21.473
 5748.00    2.61796   2.51463   -1.000
 5749.00    2.61671   2.51599   -1.000
 5750.00    2.62466   2.53832   21.810
 5751.00    2.62573   2.54561   21.786
 5752.00    2.59084   2.50989   21.669
 5753.00    2.54100   2.44929   21.716
 5754.00    2.53079   2.41706   -1.000
 5755.00    2.57764   2.43937   -1.000
 5756.00    2.63536   2.50255   -1.000
 5757.00    2.67751   2.56101   -1.000
 5758.00    2.68782   2.58417   -1.000
 5759.00    2.65869   2.56903   21.458
 5760.00    2.61031   2.52715   21.360
 5761.00    2.57527   2.47749   21.528
 5762.00    2.55228   2.44193   -1.000
 5763.00    2.57041   2.44077   -1.000
 5764.00    2.61656   2.48406   -1.000
 5765.00    2.64595   2.54916   -1.000
 5766.00    2.66919   2.59312   21.912
 5767.00    2.67483   2.60797   21.566
 5768.00    2.68518   2.60849   21.400
 5769.00    2.69592   2.60128   21.368
 5770.00    2.67454   2.58864   21.342
 5771.00    2.64925   2.57569   21.339
 5772.00    2.64887   2.56343   21.402
 5773.00    2.63501   2.55099   21.495
 5774.00    2.61861   2.54126   21.625
 5775.00    2.61955   2.53813   21.725
 5776.00    2.62424   2.54671   21.760
 5777.00    2.62779   2.55953   21.754
 5778.00    2.60505   2.55638   21.675
 5779.00    2.56376   2.52230   21.599
 5780.00    2.49164   2.45941   21.625
 5781.00    2.39579   2.39439   21.806
 5782.00    2.34259   2.35514   22.221
 5783.00    2.33867   2.35131   22.645
 5784.00    2.38807   2.35994   22.776
 5785.00    2.45168   2.36374   22.690
 5786.00    2.50106   2.38512   -1.000
 5787.00    2.55829   2.43597   -1.000
 5788.00    2.60367   2.48705   -1.000
 5789.00    2.61795   2.51355   -1.000
 5790.00    2.60433   2.51329   21.840
 5791.00    2.59126   2.50352   21.765
 5792.00    2.60411   2.50722   -1.000
 5793.00    2.64055   2.53523   -1.000
 5794.00    2.67067   2.57289   -1.000
 5795.00    2.66255   2.59643   21.597
 5796.00    2.63877   2.59225   21.461
 5797.00    2.61061   2.56470   21.381
 5798.00    2.59434   2.54511   21.436
 5799.00    2.60820   2.55954   21.579
 5800.00    2.63816   2.60239   21.614
 5801.00    2.68077   2.64259   21.419
 5802.00    2.70346   2.65358   21.125
 5803.00    2.68821   2.63151   20.935
 5804.00    2.66735   2.59085   21.000
 5805.00    2.66287   2.55863   -1.000
 5806.00    2.65404   2.55109   -1.000
 5807.00    2.65642   2.56272   -1.000
 5808.00    2.66813   2.57968   21.523
 5809.00    2.69395   2.59474   -1.000
 5810.00    2.70644   2.60842   -1.000
 5811.00    2.70390   2.62007   21.339
 5812.00    2.69712   2.62401   21.334
 5813.00    2.71168   2.61605   -1.000
 5814.00    2.70544   2.59449   -1.000
 5815.00    2.68808   2.56470   -1.000
 5816.00    2.67973   2.54283   -1.000
 5817.00    2.68802   2.55181   -1.000
 5818.00    2.71669   2.59069   -1.000
 5819.00    2.75116   2.63304   -1.000
 5820.00    2.76244   2.65595   -1.000
 5821.00    2.75957   2.65633   -1.000
 5822.00    2.75636   2.64498   -1.000
 5823.00    2.75805   2.63369   -1.000
 5824.00    2.76322   2.63035   -1.000
 5825.00    2.76651   2.63393   -1.000
 5826.00    2.76288   2.63953   -1.000
 5827.00    2.76158   2.64387   -1.000
 5828.00    2.77401   2.64883   -1.000
 5829.00    2.77868   2.65648   -1.000
 5830.00    2.76596   2.66218   -1.000
 5831.00    2.74834   2.66063   20.964
 5832.00    2.73858   2.65407   20.934
 5833.00    2.74758   2.64427   -1.000
 5834.00    2.75107   2.63045   -1.000
 5835.00    2.74070   2.61942   -1.000
 5836.00    2.75050   2.62015   -1.000
 5837.00    2.75923   2.62493   -1.000
 5838.00    2.75330   2.62502   -1.000
 5839.00    2.76405   2.62998   -1.000
 5840.00    2.78405   2.64753   -1.000
 5841.00    2.79185   2.66867   -1.000
 5842.00    2.79252   2.68141   -1.000
 5843.00    2.78255   2.68019   -1.000
 5844.00    2.75957   2.66712   20.797
 5845.00    2.74373   2.64453   -1.000
 5846.00    2.72714   2.61699   -1.000
 5847.00    2.72043   2.59323   -1.000
 5848.00    2.72241   2.58328   -1.000
 5849.00    2.70530   2.58901   -1.000
 5850.00    2.70049   2.59718   -1.000
 5851.00    2.69709   2.58683   -1.000
 5852.00    2.67249   2.55656   -1.000
 5853.00    2.65113   2.52608   -1.000
 5854.00    2.65111   2.51445   -1.000
 5855.00    2.64907   2.51549   -1.000
 5856.00    2.63153   2.49984   -1.000
 5857.00    2.60279   2.46133   -1.000
 5858.00    2.59524   2.43374   -1.000
 5859.00    2.62758   2.44633   -1.000
 5860.00    2.66805   2.49157   -1.000
 5861.00    2.69456   2.53192   -1.000
 5862.00    2.69831   2.55153   -1.000
 5863.00    2.68029   2.55890   -1.000
 5864.00    2.67913   2.56412   -1.000
 5865.00    2.68901   2.56444   -1.000
 5866.00    2.68713   2.55242   -1.000
 5867.00    2.68578   2.54004   -1.000
 5868.00    2.70143   2.55195   -1.000
 5869.00    2.72937   2.58424   -1.000
 5870.00    2.75443   2.61135   -1.000
 5871.00    2.74971   2.62047   -1.000
 5872.00    2.73455   2.61413   -1.000
 5873.00    2.73938   2.60509   -1.000
 5874.00    2.73632   2.60149   -1.000
 5875.00    2.73403   2.60328   -1.000
 5876.00    2.72895   2.60278   -1.000
 5877.00    2.72257   2.59121   -1.000
 5878.00    2.71938   2.56834   -1.000
 5879.00    2.70049   2.54112   -1.000
 5880.00    2.68490   2.51952   -1.000
 5881.00    2.69087   2.51265   -1.000
 5882.00    2.69109   2.51964   -1.000
 5883.00    2.67214   2.52307   -1.000
 5884.00    2.66455   2.51595   -1.000
 5885.00    2.65051   2.51332   -1.000
 5886.00    2.61393   2.50412   -1.000
 5887.00    2.52257   2.43900   -1.000
 5888.00    2.32235   2.28289   22.075
 5889.00    2.00969   2.07016   22.554
 5890.00    1.69414   1.91902   -1.000
 5891.00    1.53723   1.91827   -1.000
 5892.00    1.61511   2.04627   -1.000
 5893.00    1.87628   2.17014   -1.000
 5894.00    2.09361   2.18784   25.428
 5895.00    2.07182   2.11170   24.576
 5896.00    1.91051   2.03760   24.437
 5897.00    1.81580   2.07791   -1.000
 5898.00    1.91959   2.21245   -1.000
 5899.00    2.19210   2.34030   24.979
 5900.00    2.44437   2.42220   24.143
 5901.00    2.57757   2.47489   -1.000
 5902.00    2.62281   2.50802   -1.000
 5903.00    2.62915   2.52382   -1.000
 5904.00    2.63542   2.52867   -1.000
 5905.00    2.65026   2.52748   -1.000
 5906.00    2.66083   2.52672   -1.000
 5907.00    2.67103   2.53576   -1.000
 5908.00    2.69494   2.55230   -1.000
 5909.00    2.71506   2.56480   -1.000
 5910.00    2.70896   2.57318   -1.000
 5911.00    2.68004   2.57779   -1.000
 5912.00    2.66556   2.56848   -1.000
 5913.00    2.64087   2.53789   -1.000
 5914.00    2.61506   2.49550   -1.000
 5915.00    2.60445   2.46795   -1.000
 5916.00    2.61179   2.47207   -1.000
 5917.00    2.63103   2.49652   -1.000
 5918.00    2.65758   2.52829   -1.000
 5919.00    2.67234   2.55529   -1.000
 5920.00    2.67449   2.56943   -1.000
 5921.00    2.66579   2.57012   -1.000
 5922.00    2.66351   2.56315   -1.000
 5923.00    2.65956   2.56089   -1.000
 5924.00    2.67151   2.57050   -1.000
 5925.00    2.68282   2.58613   -1.000
 5926.00    2.68050   2.59774   21.980
 5927.00    2.67907   2.59657   21.926
 5928.00    2.67326   2.57707   -1.000
 5929.00    2.66241   2.54790   -1.000
 5930.00    2.66573   2.53071   -1.000
 5931.00    2.69001   2.54324   -1.000
 5932.00    2.71981   2.56946   -1.000
 5933.00    2.71818   2.57559   -1.000
 5934.00    2.70065   2.55836   -1.000
 5935.00    2.68241   2.54305   -1.000
 5936.00    2.70076   2.55460   -1.000
 5937.00    2.73009   2.58478   -1.000
 5938.00    2.74485   2.60584   -1.000
 5939.00    2.73769   2.60717   -1.000
 5940.00    2.72341   2.58909   -1.000
 5941.00    2.70117   2.56041   -1.000
 5942.00    2.68780   2.54061   -1.000
 5943.00    2.68381   2.54666   -1.000
 5944.00    2.68847   2.57049   -1.000
 5945.00    2.69480   2.59362   -1.000
 5946.00    2.69811   2.60293   -1.000
 5947.00    2.68416   2.58962   -1.000
 5948.00    2.66276   2.56017   -1.000
 5949.00    2.65228   2.54016   -1.000
 5950.00    2.65610   2.54708   -1.000
 5951.00    2.66369   2.55977   -1.000
 5952.00    2.66044   2.55627   -1.000
 5953.00    2.65690   2.54667   -1.000
 5954.00    2.67265   2.54965   -1.000
 5955.00    2.69611   2.56046   -1.000
 5956.00    2.70723   2.55918   -1.000
 5957.00    2.69486   2.54629   -1.000
 5958.00    2.69295   2.54668   -1.000
 5959.00    2.71968   2.56961   -1.000
 5960.00    2.73300   2.60070   -1.000
 5961.00    2.73508   2.62607   -1.000
 5962.00    2.74683   2.63810   -1.000
 5963.00    2.75043   2.63708   -1.000
 5964.00    2.75240   2.62654   -1.000
 5965.00    2.74721   2.61108   -1.000
 5966.00    2.73510   2.60068   -1.000
 5967.00    2.74062   2.60704   -1.000
 5968.00    2.75104   2.62368   -1.000
 5969.00    2.75778   2.63719   -1.000
 5970.00    2.74939   2.64741   -1.000
 5971.00    2.75837   2.65636   -1.000
 5972.00    2.76890   2.66024   -1.000
 5973.00    2.75580   2.65499   -1.000
 5974.00    2.73035   2.63701   -1.000
 5975.00    2.71538   2.60471   -1.000
 5976.00    2.69359   2.56794   -1.000
 5977.00    2.68146   2.54662   -1.000
 5978.00    2.68343   2.54938   -1.000
 5979.00    2.69356   2.57272   -1.000
 5980.00    2.70611   2.60244   -1.000
 5981.00    2.72530   2.61836   -1.000
 5982.00    2.71797   2.60351   -1.000
 5983.00    2.69633   2.56284   -1.000
 5984.00    2.67314   2.52319   -1.000
 5985.00    2.66253   2.51384   -1.000
 5986.00    2.69708   2.53987   -1.000
 5987.00    2.72497   2.57355   -1.000
 5988.00    2.73681   2.59731   -1.000
 5989.00    2.74881   2.61214   -1.000
 5990.00    2.75363   2.61680   -1.000
 5991.00    2.75167   2.61254   -1.000
 5992.00    2.75557   2.61495   -1.000
 5993.00    2.77178   2.63519   -1.000
 5994.00    2.77981   2.65719   -1.000
 5995.00    2.76379   2.65903   -1.000
 5996.00    2.74733   2.63580   -1.000
 5997.00    2.72834   2.60386   -1.000
 5998.00    2.72387   2.58517   -1.000
 5999.00    2.72272   2.59040   -1.000
 6000.00    2.72988   2.60768   -1.000
 6001.00    2.74773   2.61562   -1.000
 6002.00    2.74358   2.60778   -1.000
 6003.00    2.72030   2.59378   -1.000
 6004.00    2.72158   2.59359   -1.000
 6005.00    2.71644   2.60046   -1.000
 6006.00    2.70872   2.58635   -1.000
 6007.00    2.68325   2.55108   -1.000
 6008.00    2.66991   2.52510   -1.000
 6009.00    2.69597   2.54026   -1.000
 6010.00    2.71791   2.58710   -1.000
 6011.00    2.71951   2.61541   -1.000
 6012.00    2.70462   2.60504   -1.000
 6013.00    2.70006   2.58042   -1.000
 6014.00    2.69530   2.56959   -1.000
 6015.00    2.69974   2.57554   -1.000
 6016.00    2.71184   2.57859   -1.000
 6017.00    2.71448   2.57473   -1.000
 6018.00    2.71210   2.57409   -1.000
 6019.00    2.70536   2.56795   -1.000
 6020.00    2.69112   2.55017   -1.000
 6021.00    2.68926   2.54064   -1.000
 6022.00    2.69615   2.55005   -1.000
 6023.00    2.70435   2.56937   -1.000
 6024.00    2.71924   2.59070   -1.000
 6025.00    2.73706   2.61251   -1.000
 6026.00    2.75431   2.63127   -1.000
 6027.00    2.76692   2.64347   -1.000
 6028.00    2.76768   2.65675   -1.000
 6029.00    2.78083   2.67375   -1.000
 6030.00    2.80734   2.68435   -1.000
 6031.00    2.81132   2.68912   -1.000
 6032.00    2.80888   2.69694   -1.000
 6033.00    2.81307   2.70787   -1.000
 6034.00    2.81284   2.71813   -1.000
 6035.00    2.81483   2.72601   -1.000
 6036.00    2.82874   2.72854   -1.000
 6037.00    2.83005   2.72416   -1.000
 6038.00    2.81083   2.71391   -1.000
 6039.00    2.78925   2.70050   -1.000
 6040.00    2.78278   2.68883   -1.000
 6041.00    2.78888   2.68455   -1.000
 6042.00    2.79907   2.68572   -1.000
 6043.00    2.80945   2.69317   -1.000
 6044.00    2.84502   2.71117   -1.000
 6045.00    2.85514   2.72859   -1.000
 6046.00    2.83716   2.73712   -1.000
 6047.00    2.84159   2.74041   -1.000
 6048.00    2.84735   2.74315   -1.000
 6049.00    2.83613   2.74492   -1.000
 6050.00    2.84060   2.74544   -1.000
 6051.00    2.84415   2.74253   -1.000
 6052.00    2.83559   2.73096   -1.000
 6053.00    2.81672   2.71173   -1.000
 6054.00    2.80794   2.69136   -1.000
 6055.00    2.81736   2.67316   -1.000
 6056.00    2.80303   2.66059   -1.000
 6057.00    2.80448   2.66210   -1.000
 6058.00    2.82344   2.67790   -1.000
 6059.00    2.83353   2.69793   -1.000
 6060.00    2.82636   2.71108   -1.000
 6061.00    2.82223   2.70907   -1.000
 6062.00    2.81220   2.68958   -1.000
 6063.00    2.82370   2.65548   -1.000
 6064.00    2.75618   2.61822   -1.000
 6065.00    2.42307   2.59979   22.398
 6066.00    1.73352   2.61981   -1.000
 6067.00    1.93147   2.67198   -1.000
 6068.00    2.70960   2.72479   17.275
 6069.00    2.88405   2.75342    7.953
 6070.00    2.83666   2.76309   -1.000
 6071.00    2.23521   2.76782   -1.000
 6072.00    0.99016   2.76737   -1.000
 6073.00    2.42480   2.75620   -1.000
 6074.00    2.96238   2.75223   -1.000
 6075.00    2.85791   2.75271   -1.000
 6076.00    2.85757   2.73676   -1.000
 6077.00    2.83621   2.70724   -1.000
 6078.00    2.80978   2.67811   -1.000
 6079.00    2.79187   2.66239   -1.000
 6080.00    2.79122   2.65720   -1.000
 6081.00    2.77701   2.64907   -1.000
 6082.00    2.76394   2.63918   -1.000
 6083.00    2.77316   2.63807   -1.000
 6084.00    2.77542   2.64384   -1.000
 6085.00    2.77902   2.64983   -1.000
 6086.00    2.78668   2.65800   -1.000
 6087.00    2.79214   2.66901   -1.000
 6088.00    2.79754   2.67416   -1.000
 6089.00    2.77630   2.66308   -1.000
 6090.00    2.74715   2.64128   -1.000
 6091.00    2.74171   2.62810   -1.000
 6092.00    2.76090   2.63167   -1.000
 6093.00    2.76759   2.64820   -1.000
 6094.00    2.78188   2.67248   -1.000
 6095.00    2.80783   2.69457   -1.000
 6096.00    2.82300   2.70374   -1.000
 6097.00    2.82747   2.70451   -1.000
 6098.00    2.82409   2.71117   -1.000
 6099.00    2.81939   2.71790   -1.000
 6100.00    2.78953   2.69889   -1.000
 6101.00    2.72486   2.63869   -1.000
 6102.00    2.67335   2.56066   -1.000
 6103.00    2.67755   2.52771   -1.000
 6104.00    2.72259   2.56281   -1.000
 6105.00    2.77036   2.62818   -1.000
 6106.00    2.80782   2.67456   -1.000
 6107.00    2.81930   2.69025   -1.000
 6108.00    2.79624   2.69620   -1.000
 6109.00    2.78640   2.70601   -1.000
 6110.00    2.80132   2.71207   -1.000
 6111.00    2.79307   2.70928   -1.000
 6112.00    2.78961   2.71007   -1.000
 6113.00    2.81013   2.72248   -1.000
 6114.00    2.79939   2.73525   22.191
 6115.00    2.78815   2.73301   22.168
 6116.00    2.79387   2.72088   22.052
 6117.00    2.79103   2.71378   22.044
 6118.00    2.77878   2.70572   22.160
 6119.00    2.74188   2.67938   22.282
 6120.00    2.70512   2.63008   22.319
 6121.00    2.68349   2.57563   -1.000
 6122.00    2.66747   2.54753   -1.000
 6123.00    2.68523   2.57029   -1.000
 6124.00    2.73711   2.62590   -1.000
 6125.00    2.77017   2.66440   -1.000
 6126.00    2.77098   2.66983   -1.000
 6127.00    2.75904   2.65894   -1.000
 6128.00    2.74645   2.65070   -1.000
 6129.00    2.75089   2.66074   -1.000
 6130.00    2.78603   2.69101   -1.000
 6131.00    2.80333   2.72473   -1.000
 6132.00    2.80555   2.74250   22.373
 6133.00    2.79329   2.73237   22.202
 6134.00    2.74337   2.68068   22.197
 6135.00    2.66652   2.58470   -1.000
 6136.00    2.59861   2.47977   -1.000
 6137.00    2.56078   2.43388   -1.000
 6138.00    2.60706   2.47669   -1.000
 6139.00    2.68697   2.56805   -1.000
 6140.00    2.74339   2.63172   -1.000
 6141.00    2.74393   2.64015   -1.000
 6142.00    2.72344   2.63944   -1.000
 6143.00    2.72406   2.66516   22.755
 6144.00    2.76511   2.70399   22.822
 6145.00    2.79403   2.72800   22.788
 6146.00    2.79792   2.72757   22.518
 6147.00    2.78209   2.70969   22.305
 6148.00    2.76414   2.68493   -1.000
 6149.00    2.75227   2.66296   -1.000
 6150.00    2.74961   2.65204   -1.000
 6151.00    2.75362   2.65797   -1.000
 6152.00    2.74955   2.67334   -1.000
 6153.00    2.75424   2.68051   -1.000
 6154.00    2.73039   2.66830   22.718
 6155.00    2.71137   2.64858   22.583
 6156.00    2.71069   2.63941   22.624
 6157.00    2.71200   2.63852   -1.000
 6158.00    2.70185   2.63063   -1.000
 6159.00    2.67191   2.59411   -1.000
 6160.00    2.60271   2.51405   -1.000
 6161.00    2.50618   2.41006   -1.000
 6162.00    2.44824   2.33926   -1.000
 6163.00    2.46903   2.34575   -1.000
 6164.00    2.51668   2.41223   -1.000
 6165.00    2.58081   2.49231   -1.000
 6166.00    2.62271   2.54532   -1.000
 6167.00    2.60956   2.55618   24.135
 6168.00    2.58188   2.52598   23.867
 6169.00    2.55817   2.48096   -1.000
 6170.00    2.55396   2.46809   -1.000
 6171.00    2.58286   2.50813   -1.000
 6172.00    2.61606   2.56790   24.422
 6173.00    2.64384   2.60408   24.125
 6174.00    2.64067   2.61579   23.660
 6175.00    2.65176   2.61792   23.431
 6176.00    2.66862   2.61752   23.491
 6177.00    2.66165   2.62238   23.486
 6178.00    2.67234   2.63667   23.423
 6179.00    2.68189   2.65169   23.377
 6180.00    2.69131   2.66125   23.298
 6181.00    2.71342   2.67313   23.184
 6182.00    2.72664   2.68804   23.107
 6183.00    2.71719   2.69488   23.026
 6184.00    2.71391   2.68816   22.926
 6185.00    2.70272   2.66804   22.898
 6186.00    2.66199   2.63833   22.964
 6187.00    2.63533   2.60898   23.071
 6188.00    2.62072   2.58756   23.284
 6189.00    2.60419   2.56300   23.543
 6190.00    2.58324   2.52432   23.778
 6191.00    2.56072   2.49339   23.990
 6192.00    2.56444   2.50462   24.188
 6193.00    2.61071   2.55846   24.491
 6194.00    2.66931   2.62128   24.525
 6195.00    2.70249   2.66314   24.125
 6196.00    2.69037   2.68082   23.537
 6197.00    2.68604   2.67624   23.238
 6198.00    2.67996   2.64828   23.144
 6199.00    2.63902   2.61172   23.160
 6200.00    2.63362   2.59876   23.361
 6201.00    2.64552   2.62212   23.627
 6202.00    2.67734   2.66115   23.759
 6203.00    2.71070   2.69160   23.663
 6204.00    2.69483   2.70497   23.386
 6205.00    2.68733   2.70797   23.138
 6206.00    2.68968   2.71126   23.119
 6207.00    2.70368   2.71703   23.115
 6208.00    2.71429   2.71845   23.078
 6209.00    2.69812   2.71037   23.103
 6210.00    2.69756   2.69250   23.184
 6211.00    2.67997   2.66351   23.190
 6212.00    2.64114   2.61765   23.333
 6213.00    2.60932   2.56130   23.553
 6214.00    2.57186   2.51825   23.740
 6215.00    2.57838   2.50682   -1.000
 6216.00    2.60455   2.52475   -1.000
 6217.00    2.60701   2.55001   24.553
 6218.00    2.63190   2.55857   -1.000
 6219.00    2.61589   2.54539   -1.000
 6220.00    2.59139   2.53346   24.169
 6221.00    2.60732   2.54421   24.331
 6222.00    2.61900   2.56922   24.179
 6223.00    2.42474   2.58944   24.063
 6224.00    2.27606   2.59898   -1.000
 6225.00    2.66656   2.60559   -1.000
 6226.00    2.65106   2.61155   24.767
 6227.00    2.60907   2.60556   23.851
 6228.00    2.60734   2.57439   23.944
 6229.00    2.59444   2.51639   -1.000
 6230.00    2.54366   2.45679   -1.000
 6231.00    2.52266   2.43536   -1.000
 6232.00    2.55290   2.46438   -1.000
 6233.00    2.61690   2.52651   -1.000
 6234.00    2.66879   2.59355   -1.000
 6235.00    2.67874   2.63941   24.526
 6236.00    2.66532   2.64740   24.064
 6237.00    2.65129   2.62297   23.739
 6238.00    2.64650   2.58487   23.717
 6239.00    2.60745   2.54928   23.922
 6240.00    2.58455   2.52728   24.171
 6241.00    2.56759   2.51853   24.418
 6242.00    2.56417   2.50770   24.650
 6243.00    2.54817   2.48827   24.708
 6244.00    2.53729   2.47417   24.725
 6245.00    2.54227   2.47656   -1.000
 6246.00    2.56015   2.49847   25.053
 6247.00    2.59274   2.54057   24.986
 6248.00    2.62295   2.58772   24.795
 6249.00    2.64539   2.61491   24.526
 6250.00    2.63575   2.60727   24.217
 6251.00    2.59533   2.56634   24.017
 6252.00    2.55591   2.51315   24.067
 6253.00    2.52237   2.47734   24.360
 6254.00    2.51347   2.46647   24.809
 6255.00    2.52317   2.46401   25.065
 6256.00    2.51021   2.45119   25.204
 6257.00    2.48953   2.43107   25.248
 6258.00    2.49776   2.42654   -1.000
 6259.00    2.52474   2.45329   -1.000
 6260.00    2.56325   2.50517   -1.000
 6261.00    2.62550   2.56241   -1.000
 6262.00    2.64445   2.60884   25.080
 6263.00    2.65136   2.63228   24.714
 6264.00    2.64963   2.62838   24.374
 6265.00    2.63663   2.61313   24.036
 6266.00    2.63640   2.61074   24.006
 6267.00    2.64871   2.62343   24.225
 6268.00    2.65794   2.62966   24.328
 6269.00    2.64111   2.62264   24.175
 6270.00    2.62198   2.61809   24.042
 6271.00    2.61759   2.62674   24.166
 6272.00    2.63513   2.64296   24.261
 6273.00    2.64995   2.65252   24.201
 6274.00    2.64771   2.64699   24.118
 6275.00    2.64535   2.62859   24.087
 6276.00    2.65168   2.60341   24.184
 6277.00    2.63481   2.57254   24.375
 6278.00    2.58709   2.53885   24.606
 6279.00    2.52272   2.50767   25.066
 6280.00    2.44758   2.49090   25.696
 6281.00    2.40618   2.50051   26.082
 6282.00    2.41899   2.53511   26.167
 6283.00    2.43282   2.58020   25.986
 6284.00    2.45008   2.61925   25.536
 6285.00    2.45679   2.64712   -1.000
 6286.00    2.46314   2.67005   -1.000
 6287.00    2.49718   2.69168   -1.000
 6288.00    2.54963   2.70496   24.269
 6289.00    2.58772   2.69850   24.052
 6290.00    2.61712   2.67416   23.911
 6291.00    2.60574   2.64653   23.906
 6292.00    2.58893   2.62990   24.066
 6293.00    2.61177   2.62740   24.273
 6294.00    2.61453   2.62826   24.427
 6295.00    2.61151   2.61616   24.456
 6296.00    2.59108   2.58893   24.485
 6297.00    2.56881   2.56576   24.555
 6298.00    2.54447   2.56216   24.758
 6299.00    2.52053   2.56849   24.895
 6300.00    2.46840   2.56356   24.906
 6301.00    2.38980   2.54672   24.851
 6302.00    2.39986   2.54290   24.738
 6303.00    2.67286   2.56483   -1.000
 6304.00    2.91280   2.59990   -1.000
 6305.00    2.89079   2.63414   -1.000
 6306.00    2.74914   2.66442   -1.000
 6307.00    2.69045   2.69230   24.457
 6308.00    2.68696   2.70895   24.183
 6309.00    2.66464   2.70471   23.984
 6310.00    2.64371   2.68506   23.791
 6311.00    2.63452   2.66455   23.796
 6312.00    2.62839   2.65038   23.923
 6313.00    2.62640   2.63724   24.080
 6314.00    2.61121   2.61550   24.165
 6315.00    2.59202   2.59053   24.255
 6316.00    2.58453   2.57494   24.299
 6317.00    2.58019   2.56471   24.528
 6318.00    2.55643   2.56012   24.580
 6319.00    2.55516   2.57754   24.553
 6320.00    2.59727   2.61469   24.539
 6321.00    2.61881   2.64753   24.561
 6322.00    2.62252   2.67017   24.425
 6323.00    2.63261   2.69233   24.116
 6324.00    2.66132   2.71526   23.910
 6325.00    2.68780   2.73058   23.835
 6326.00    2.68711   2.73358   23.747
 6327.00    2.69282   2.73051   23.621
 6328.00    2.68288   2.73010   23.563
 6329.00    2.69792   2.73050   23.540
 6330.00    2.71598   2.73012   23.430
 6331.00    2.69239   2.73783   23.469
 6332.00    2.69163   2.74945   23.483
 6333.00    2.71108   2.74287   23.485
 6334.00    2.67419   2.70493   23.394
 6335.00    2.75980   2.65182   -1.000
 6336.00    2.72747   2.61956   -1.000
 6337.00    2.61871   2.62570   23.576
 6338.00    2.66034   2.65645   24.115
 6339.00    2.66314   2.69342   24.071
 6340.00    2.68947   2.72463   23.842
 6341.00    2.70424   2.73670   23.594
 6342.00    2.68125   2.72317   23.352
 6343.00    2.66656   2.69665   23.254
 6344.00    2.66900   2.68218   23.156
 6345.00    2.67277   2.69399   23.215
 6346.00    2.67532   2.72226   23.421
 6347.00    2.68791   2.75068   23.419
 6348.00    2.71149   2.77409   23.338
 6349.00    2.72510   2.79106   23.201
 6350.00    2.73341   2.79958   23.044
 6351.00    2.72739   2.79898   22.978
 6352.00    2.70775   2.78638   22.984
 6353.00    2.69967   2.76009   22.936
 6354.00    2.66884   2.72811   22.977
 6355.00    2.64745   2.70698   23.084
 6356.00    2.64494   2.69801   23.211
 6357.00    2.62759   2.68332   23.488
 6358.00    2.60242   2.65581   23.656
 6359.00    2.59074   2.62924   23.655
 6360.00    2.57831   2.61292   23.758
 6361.00    2.55943   2.60224   24.030
 6362.00    2.56244   2.59787   24.086
 6363.00    2.57587   2.60740   23.973
 6364.00    2.57330   2.63243   23.907
 6365.00    2.56733   2.66621   23.882
 6366.00    2.63342   2.70202   23.783
 6367.00    2.73165   2.73464   23.619
 6368.00    2.77646   2.75729   23.473
 6369.00    2.72009   2.76542   23.347
 6370.00    2.69164   2.76827   23.194
 6371.00    2.68504   2.77802   23.051
 6372.00    2.66710   2.79584   23.011
 6373.00    2.69179   2.81236   23.022
 6374.00    2.70174   2.81844   22.932
 6375.00    2.67761   2.81531   22.860
 6376.00    2.66335   2.80746   22.931
 6377.00    2.64547   2.79405   22.946
 6378.00    2.63246   2.77666   23.004
 6379.00    2.62104   2.76301   23.097
 6380.00    2.59775   2.75729   23.222
 6381.00    2.60635   2.75971   23.377
 6382.00    2.61965   2.76802   23.449
 6383.00    2.61985   2.77485   23.462
 6384.00    2.62089   2.77719   23.505
 6385.00    2.61941   2.78168   23.487
 6386.00    2.62469   2.79226   23.438
 6387.00    2.61536   2.80271   23.559
 6388.00    2.61092   2.80752   -1.000
 6389.00    2.60108   2.80671   -1.000
 6390.00    2.59546   2.79511   -1.000
 6391.00    2.56558   2.76282   -1.000
 6392.00    2.51165   2.71376   -1.000
 6393.00    2.47674   2.67659   -1.000
 6394.00    2.45515   2.68417   -1.000
 6395.00    2.47695   2.73299   -1.000
 6396.00    2.50788   2.78130   -1.000
 6397.00    2.50553   2.79308   -1.000
 6398.00    2.46882   2.75754   -1.000
 6399.00    2.40880   2.69771   -1.000
 6400.00    2.36263   2.66584   -1.000
 6401.00    2.39411   2.69642   -1.000
 6402.00    2.42495   2.76526   -1.000
 6403.00    2.47364   2.82148   -1.000
 6404.00    2.47159   2.84296   -1.000
 6405.00    2.43922   2.83141   -1.000
 6406.00    2.41418   2.79769   -1.000
 6407.00    2.37864   2.76210   -1.000
 6408.00    2.34939   2.74693   -1.000
 6409.00    2.34794   2.75224   -1.000
 6410.00    2.31979   2.75665   -1.000
 6411.00    2.28746   2.75119   -1.000
 6412.00    2.27122   2.74934   -1.000
 6413.00    2.25423   2.75863   -1.000
 6414.00    2.24357   2.77227   -1.000
 6415.00    2.25690   2.78424   -1.000
 6416.00    2.24654   2.79322   -1.000
 6417.00    2.24206   2.79226   -1.000
 6418.00    2.23194   2.77171   -1.000
 6419.00    2.18462   2.73407   -1.000
 6420.00    2.12629   2.70164   -1.000
 6421.00    2.09156   2.70243   -1.000
 6422.00    2.08989   2.74274   -1.000
 6423.00    2.10431   2.79421   -1.000
 6424.00    2.10839   2.82863   -1.000
 6425.00    2.10333   2.84547   -1.000
 6426.00    2.09785   2.85649   -1.000
 6427.00    2.07484   2.85988   -1.000
 6428.00    2.04898   2.83972   -1.000
