###################################################################
## OUTPUT of StarlightChains_v04.for    [Cid@UFSC - 01/Apr/2007] ##
###################################################################

## Some input info
NGC6333_a_1.cxt                          [arq_obs]
Base.BC03.S                              [arq_base]
NGC6333_a_1.msk                          [arq_masks]
StCv04.C99.config                        [arq_config]
  150                                    [N_base]
    0                                    [N_YAV_components = # of components with extra extinction!]
    0                                    [i_FitPowerLaw (1/0 = Yes/No)]
-9.99                                    [alpha_PowerLaw]
CCM                                      [red_law_option]
 1.458241                                [q_norm = A(l_norm)/A(V)]

## (Re)Sampling Parameters
 3359.00                                 [l_ini (A)]
 6428.00                                 [l_fin (A)]
    1.00                                 [dl    (A)]     (OBS: dl_cushion =    50.00 A)

## Normalization info
 4020.00                                 [l_norm (A) - for base]
 4010.00                                 [llow_norm (A) - window for f_obs]
 4060.00                                 [lupp_norm (A) - window for f_obs]
1.502426E-14                             [fobs_norm (in input units)]

## S/N
 4730.00                                 [llow_SN (A) - window for S/N]
 4780.00                                 [lupp_SN (A) - window for S/N]
 125.098                                 [S/N in S/N window]
 101.861                                 [S/N in norm. window]
  69.725                                 [S/N_err in S/N window]
  56.774                                 [S/N_err in norm. window]
  1.0000                                 [fscale_chi2]

## etc...
  2147483616                             [idum_orig]
  3063                                   [NOl_eff]
  2227                                   [Nl_eff]
   836    NSIGMA                         [Ntot_cliped & clip_method]
  3591700                                [Nglobal_steps]
   7                                     [N_chains]
  20                                     [NEX0s_base = N_base in EX0s-fits]
 0   0   1      286   2.0   8.726E+02    [Clip-Bug, RC-Crash & Burn-In warning-flags, n_censored_weights, wei_nsig_threshold & wei_limit]
   148    147.974    147.961      0.012  [idt_all, wdt_TotTime, wdt_UsrTime & wdt_SysTime (sec)]

## Synthesis Results - Best model ##

 1.79718E+00                             [chi2/Nl_eff]
     1.43510                             [adev (%)]

   100.47400                             [sum-of-x (%)]
 9.35023E-14                             [Flux_tot (units of input spectrum!)]
 1.37733E-09                             [Mini_tot (???)]
 6.81761E-10                             [Mcor_tot (???)]

 -21.71                                  [v0_min  (km/s)]
  83.22                                  [vd_min  (km/s)]
 1.3578                                  [AV_min  (mag)]
 0.0000                                  [YAV_min (mag)]

# j     x_j(%)      Mini_j(%)     Mcor_j(%)     age_j(yr)     Z_j      (L/M)_j    YAV?  Mstars   component_j        a/Fe...       SSP_chi2r SSP_adev(%)   SSP_AV   SSP_x(%)
  1      0.0001     1.0474E-06    2.1159E-06    1.000000E+06  0.00010  8.160E-03    0   1.0000   age020_m22            0.0000     4.7671E+02    22.9796   4.0000    67.6515
  2     20.5059     2.9113E-02    5.8816E-02    3.160000E+06  0.00010  4.759E-02    0   1.0000   age045_m22            0.0000     1.3846E+01     2.6127   2.3976    94.6567
  3      4.3863     1.5340E-02    2.9695E-02    5.010000E+06  0.00010  1.932E-02    0   0.9582   age055_m22            0.0000     1.4200E+02    11.3659   2.9763    72.6273
  4      0.0000     0.0000E+00    0.0000E+00    6.610000E+06  0.00010  9.973E-03    0   0.9297   age061_m22            0.0000     4.4069E+02    22.0236   4.0000    70.3278
  5      0.0000     0.0000E+00    0.0000E+00    8.710000E+06  0.00010  7.690E-03    0   0.9030   age067_m22            0.0000     4.1850E+02    21.4023   4.0000    71.0043
  6      0.0000     0.0000E+00    0.0000E+00    1.000000E+07  0.00010  6.375E-03    0   0.8902   age070_m22            0.0000     4.1537E+02    21.3121   4.0000    71.3804
  7      0.0000     0.0000E+00    0.0000E+00    1.445000E+07  0.00010  4.874E-03    0   0.8589   age078_m22            0.0000     2.2330E+02    15.0047   4.0000    75.5405
  8      0.0000     0.0000E+00    0.0000E+00    2.512000E+07  0.00010  4.103E-03    0   0.8174   age090_m22            0.0000     3.8218E+01     5.3124   3.8652    84.7596
  9      2.7650     5.1127E-02    8.0876E-02    4.000000E+07  0.00010  3.654E-03    0   0.7830   age104_m22            0.0000     2.0373E+01     3.0056   3.4094    95.1638
 10      2.4743     5.4050E-02    8.2955E-02    5.500000E+07  0.00010  3.093E-03    0   0.7597   age110_m22            0.0000     2.4721E+01     3.1964   3.2461    99.1458
 11      1.5776     4.3846E-02    6.3229E-02    1.015200E+08  0.00010  2.431E-03    0   0.7138   age116_m22            0.0000     4.6959E+01     5.0787   2.7982   106.3425
 12      0.0000     0.0000E+00    0.0000E+00    1.609000E+08  0.00010  1.319E-03    0   0.6775   age120_m22            0.0000     4.2608E+01     5.5899   2.3081   109.6652
 13      0.0000     0.0000E+00    0.0000E+00    2.861200E+08  0.00010  1.075E-03    0   0.6412   age125_m22            0.0000     1.9282E+02    12.5376   2.0540   127.0187
 14      0.0000     0.0000E+00    0.0000E+00    5.088000E+08  0.00010  7.183E-04    0   0.6083   age130_m22            0.0000     2.5596E+02    14.6353   1.7192   133.6579
 15      0.0000     0.0000E+00    0.0000E+00    9.047900E+08  0.00010  4.524E-04    0   0.5785   age135_m22            0.0000     2.6328E+02    14.9793   1.5013   135.9561
 16      0.0000     0.0000E+00    0.0000E+00    1.278050E+09  0.00010  3.018E-04    0   0.5588   age138_m22            0.0000     9.8496E+01     9.7023   1.2263   122.6192
 17      0.0000     0.0000E+00    0.0000E+00    1.434000E+09  0.00010  2.691E-04    0   0.5532   age139_m22            0.0000     7.6431E+01     8.6641   1.1190   119.8530
 18      0.0000     0.0000E+00    0.0000E+00    2.500000E+09  0.00010  1.582E-04    0   0.5296   age150_m22            0.0000     6.0753E+01     7.5982   1.0473   118.8975
 19      0.0000     0.0000E+00    0.0000E+00    4.250000E+09  0.00010  1.007E-04    0   0.5110   age158_m22            0.0000     2.6810E+01     5.2157   0.9999   112.4942
 20      0.0000     0.0000E+00    0.0000E+00    6.250000E+09  0.00010  6.869E-05    0   0.4985   age166_m22            0.0000     9.5359E+00     3.0206   1.0423   105.3008
 21      0.0000     0.0000E+00    0.0000E+00    7.500000E+09  0.00010  5.873E-05    0   0.4931   age171_m22            0.0000     7.4816E+00     2.5484   1.0504   103.9046
 22      0.0000     0.0000E+00    0.0000E+00    1.000000E+10  0.00010  4.481E-05    0   0.4854   age181_m22            0.0000     7.3101E+00     2.5490   1.0143   103.4494
 23      0.0000     0.0000E+00    0.0000E+00    1.300000E+10  0.00010  3.489E-05    0   0.4791   age193_m22            0.0000     7.0615E+00     2.5220   0.9643   102.6179
 24      0.0000     0.0000E+00    0.0000E+00    1.500000E+10  0.00010  3.035E-05    0   0.4766   age201_m22            0.0000     6.8818E+00     2.4680   0.9304   102.2209
 25     17.3582     4.6726E+01    4.4698E+01    1.800000E+10  0.00010  2.510E-05    0   0.4735   age213_m22            0.0000     6.7247E+00     2.3449   0.8768   101.0014
 26      0.0000     0.0000E+00    0.0000E+00    1.000000E+06  0.00040  8.458E-03    0   1.0000   age020_m32            0.0000     4.8529E+02    23.2146   4.0000    68.2695
 27      0.0000     0.0000E+00    0.0000E+00    3.160000E+06  0.00040  3.973E-02    0   1.0000   age045_m32            0.0000     4.3950E+01     5.7051   3.7753    84.2547
 28      0.0000     0.0000E+00    0.0000E+00    5.010000E+06  0.00040  1.935E-02    0   0.9532   age055_m32            0.0000     1.3044E+02    10.3939   4.0000    74.8689
 29      0.0000     0.0000E+00    0.0000E+00    6.610000E+06  0.00040  1.204E-02    0   0.9243   age061_m32            0.0000     2.8971E+02    17.3759   4.0000    73.1884
 30      0.0000     0.0000E+00    0.0000E+00    8.710000E+06  0.00040  9.433E-03    0   0.9001   age067_m32            0.0000     2.4640E+02    15.8687   4.0000    74.5688
 31      0.0000     0.0000E+00    0.0000E+00    1.000000E+07  0.00040  8.053E-03    0   0.8877   age070_m32            0.0000     2.1766E+02    14.7388   4.0000    75.1821
 32      0.0000     0.0000E+00    0.0000E+00    1.445000E+07  0.00040  7.027E-03    0   0.8578   age078_m32            0.0000     5.8452E+01     6.8838   3.7739    81.6335
 33      0.0000     0.0000E+00    0.0000E+00    2.512000E+07  0.00040  4.707E-03    0   0.8166   age090_m32            0.0000     2.8248E+01     4.5102   3.3939    88.4632
 34      1.0229     1.8609E-02    2.9426E-02    4.000000E+07  0.00040  3.714E-03    0   0.7827   age104_m32            0.0000     1.5904E+01     2.7623   3.0768    96.0424
 35      0.1822     4.1280E-03    6.3323E-03    5.500000E+07  0.00040  2.982E-03    0   0.7593   age110_m32            0.0000     1.9214E+01     2.8043   2.9622    99.3440
 36      0.0000     0.0000E+00    0.0000E+00    1.015200E+08  0.00040  2.188E-03    0   0.7143   age116_m32            0.0000     8.2147E+01     7.6459   2.4634   113.3815
 37      0.0000     0.0000E+00    0.0000E+00    1.609000E+08  0.00040  1.690E-03    0   0.6856   age120_m32            0.0000     1.5144E+02    10.6334   2.1130   122.5326
 38      0.0000     0.0000E+00    0.0000E+00    2.861200E+08  0.00040  1.152E-03    0   0.6509   age125_m32            0.0000     2.0931E+02    13.1633   1.7703   129.9449
 39      0.0000     0.0000E+00    0.0000E+00    5.088000E+08  0.00040  7.331E-04    0   0.6182   age130_m32            0.0000     2.3827E+02    14.2410   1.5566   133.0504
 40      0.0000     0.0000E+00    0.0000E+00    9.047900E+08  0.00040  3.960E-04    0   0.5890   age135_m32            0.0000     1.0553E+02    10.2410   1.3031   122.3497
 41      0.0000     0.0000E+00    0.0000E+00    1.278050E+09  0.00040  2.854E-04    0   0.5687   age138_m32            0.0000     7.6830E+01     8.5802   1.0730   121.7562
 42      0.0000     0.0000E+00    0.0000E+00    1.434000E+09  0.00040  2.531E-04    0   0.5632   age139_m32            0.0000     7.4634E+01     8.3956   1.0168   121.4974
 43     25.3720     1.1521E+01    1.2536E+01    2.500000E+09  0.00040  1.488E-04    0   0.5386   age150_m32            0.0000     4.9835E+01     6.9126   0.8245   116.5601
 44     15.7258     1.1699E+01    1.2288E+01    4.250000E+09  0.00040  9.082E-05    0   0.5199   age158_m32            0.0000     1.2700E+01     3.5244   0.8852   106.2541
 45      5.0007     5.3108E+00    5.4462E+00    6.250000E+09  0.00040  6.362E-05    0   0.5076   age166_m32            0.0000     9.3987E+00     2.3014   0.9618    97.9929
 46      2.6563     3.3934E+00    3.4462E+00    7.500000E+09  0.00040  5.289E-05    0   0.5027   age171_m32            0.0000     1.2046E+01     2.5034   0.9437    96.0355
 47      0.0000     0.0000E+00    0.0000E+00    1.000000E+10  0.00040  3.972E-05    0   0.4948   age181_m32            0.0000     1.4788E+01     2.7724   0.8901    94.3969
 48      0.0000     0.0000E+00    0.0000E+00    1.300000E+10  0.00040  3.283E-05    0   0.4870   age193_m32            0.0000     1.0280E+01     2.7502   0.7851    99.5450
 49      0.0010     2.4031E-03    2.3565E-03    1.500000E+10  0.00040  2.925E-05    0   0.4854   age201_m32            0.0000     1.0782E+01     3.0711   0.7286   102.7178
 50      0.0000     0.0000E+00    0.0000E+00    1.800000E+10  0.00040  2.469E-05    0   0.4819   age213_m32            0.0000     1.2133E+01     3.3267   0.6718   103.9288
 51      0.0000     0.0000E+00    0.0000E+00    1.000000E+06  0.00400  1.114E-02    0   1.0000   age020_m42            0.0000     4.2086E+02    21.3780   4.0000    68.9366
 52      0.0000     0.0000E+00    0.0000E+00    3.160000E+06  0.00400  4.073E-02    0   0.9999   age045_m42            0.0000     2.6514E+01     4.0719   3.4176    88.9008
 53      0.0000     0.0000E+00    0.0000E+00    5.010000E+06  0.00400  2.534E-02    0   0.9488   age055_m42            0.0000     7.4490E+01     7.6950   3.9593    78.2055
 54      0.0011     2.8788E-06    5.3623E-06    6.610000E+06  0.00400  2.583E-02    0   0.9220   age061_m42            0.0000     1.9112E+01     3.0582   3.1888    91.5071
 55      0.0006     2.2851E-06    4.1471E-06    8.710000E+06  0.00400  1.706E-02    0   0.8983   age067_m42            0.0000     3.4689E+01     5.2134   3.1116    86.1978
 56      0.0000     0.0000E+00    0.0000E+00    1.000000E+07  0.00400  1.271E-02    0   0.8862   age070_m42            0.0000     5.6835E+01     7.2338   3.1551    82.7544
 57      0.0000     0.0000E+00    0.0000E+00    1.445000E+07  0.00400  7.666E-03    0   0.8571   age078_m42            0.0000     8.7499E+01     8.6570   3.6135    77.7964
 58      0.0000     0.0000E+00    0.0000E+00    2.512000E+07  0.00400  5.070E-03    0   0.8174   age090_m42            0.0000     5.1576E+01     6.6886   3.0088    84.8885
 59      0.0000     0.0000E+00    0.0000E+00    4.000000E+07  0.00400  3.505E-03    0   0.7851   age104_m42            0.0000     3.4569E+01     4.5874   2.6274    90.2500
 60      0.0000     0.0000E+00    0.0000E+00    5.500000E+07  0.00400  3.059E-03    0   0.7629   age110_m42            0.0000     1.9531E+01     3.0413   2.4789   102.8368
 61      0.0000     0.0000E+00    0.0000E+00    1.015200E+08  0.00400  2.268E-03    0   0.7207   age116_m42            0.0000     1.2580E+02    10.1234   2.0628   121.9087
 62      0.0000     0.0000E+00    0.0000E+00    1.609000E+08  0.00400  1.720E-03    0   0.6930   age120_m42            0.0000     1.4660E+02    11.2451   1.8654   126.1272
 63      0.0000     0.0000E+00    0.0000E+00    2.861200E+08  0.00400  1.079E-03    0   0.6613   age125_m42            0.0000     1.4369E+02    11.2802   1.5114   126.8382
 64      0.0000     0.0000E+00    0.0000E+00    5.088000E+08  0.00400  6.261E-04    0   0.6313   age130_m42            0.0000     1.8198E+02    12.4967   1.2520   133.1764
 65      0.0000     0.0000E+00    0.0000E+00    9.047900E+08  0.00400  3.535E-04    0   0.6024   age135_m42            0.0000     1.0061E+02     9.5711   1.0035   126.5848
 66      0.0000     0.0000E+00    0.0000E+00    1.278050E+09  0.00400  2.677E-04    0   0.5837   age138_m42            0.0000     7.1292E+01     7.5526   0.4881   116.0924
 67      0.0000     0.0000E+00    0.0000E+00    1.434000E+09  0.00400  1.910E-04    0   0.5716   age139_m42            0.0000     6.4179E+01     7.8258   0.6137   118.8900
 68      0.0000     0.0000E+00    0.0000E+00    2.500000E+09  0.00400  9.818E-05    0   0.5463   age150_m42            0.0000     5.1183E+01     6.1166   0.5138   106.4969
 69      0.0000     0.0000E+00    0.0000E+00    4.250000E+09  0.00400  5.491E-05    0   0.5269   age158_m42            0.0000     6.2402E+01     5.7765   0.4592   100.8312
 70      0.0000     0.0000E+00    0.0000E+00    6.250000E+09  0.00400  3.857E-05    0   0.5151   age166_m42            0.0000     7.7457E+01     6.3462   0.3534    98.7120
 71      0.0000     0.0000E+00    0.0000E+00    7.500000E+09  0.00400  3.243E-05    0   0.5110   age171_m42            0.0000     8.8712E+01     6.7445   0.2814    97.9467
 72      0.0000     0.0000E+00    0.0000E+00    1.000000E+10  0.00400  2.424E-05    0   0.5028   age181_m42            0.0000     1.0884E+02     7.2400   0.2097    97.0196
 73      0.0000     0.0000E+00    0.0000E+00    1.300000E+10  0.00400  1.883E-05    0   0.4927   age193_m42            0.0000     1.2962E+02     7.5489   0.1802    96.3615
 74      0.0000     0.0000E+00    0.0000E+00    1.500000E+10  0.00400  1.685E-05    0   0.4919   age201_m42            0.0000     1.2421E+02     7.4310   0.1852    96.3612
 75      0.0000     0.0000E+00    0.0000E+00    1.800000E+10  0.00400  1.452E-05    0   0.4874   age213_m42            0.0000     1.1531E+02     7.2246   0.1995    96.6376
 76      0.0000     0.0000E+00    0.0000E+00    1.000000E+06  0.00800  1.286E-02    0   1.0000   age020_m52            0.0000     3.7051E+02    19.7823   4.0000    71.2616
 77      0.0000     0.0000E+00    0.0000E+00    3.160000E+06  0.00800  3.147E-02    0   0.9966   age045_m52            0.0000     2.9633E+02    17.4719   4.0000    72.9658
 78      0.0000     0.0000E+00    0.0000E+00    5.010000E+06  0.00800  2.664E-02    0   0.9443   age055_m52            0.0000     1.0355E+02     8.5649   4.0000    77.0340
 79      0.0000     0.0000E+00    0.0000E+00    6.610000E+06  0.00800  2.151E-02    0   0.9177   age061_m52            0.0000     5.9683E+01     6.6411   2.7530    84.2934
 80      0.0000     0.0000E+00    0.0000E+00    8.710000E+06  0.00800  1.628E-02    0   0.8948   age067_m52            0.0000     4.9074E+01     6.0061   3.0924    85.8461
 81      0.0000     0.0000E+00    0.0000E+00    1.000000E+07  0.00800  1.215E-02    0   0.8827   age070_m52            0.0000     6.3401E+01     6.8678   3.4605    83.1128
 82      0.0000     0.0000E+00    0.0000E+00    1.445000E+07  0.00800  8.739E-03    0   0.8552   age078_m52            0.0000     4.6596E+01     5.5438   3.4546    85.9952
 83      0.0000     0.0000E+00    0.0000E+00    2.512000E+07  0.00800  5.676E-03    0   0.8162   age090_m52            0.0000     2.5320E+01     3.2587   2.9343    95.2116
 84      0.0000     0.0000E+00    0.0000E+00    4.000000E+07  0.00800  3.939E-03    0   0.7841   age104_m52            0.0000     2.6104E+01     2.6044   2.6808   101.4090
 85      0.0000     0.0000E+00    0.0000E+00    5.500000E+07  0.00800  3.155E-03    0   0.7627   age110_m52            0.0000     3.6966E+01     4.2083   2.5675   106.5418
 86      0.0000     0.0000E+00    0.0000E+00    1.015200E+08  0.00800  2.206E-03    0   0.7226   age116_m52            0.0000     8.3283E+01     8.2004   2.2144   117.7632
 87      0.0000     0.0000E+00    0.0000E+00    1.609000E+08  0.00800  1.596E-03    0   0.6963   age120_m52            0.0000     1.0826E+02     9.7075   1.9335   122.5384
 88      0.0000     0.0000E+00    0.0000E+00    2.861200E+08  0.00800  1.002E-03    0   0.6665   age125_m52            0.0000     1.9728E+02    13.3945   1.4708   133.3389
 89      0.0000     0.0000E+00    0.0000E+00    5.088000E+08  0.00800  5.759E-04    0   0.6377   age130_m52            0.0000     2.1945E+02    14.4477   1.0766   140.2411
 90      0.0000     0.0000E+00    0.0000E+00    9.047900E+08  0.00800  2.972E-04    0   0.6086   age135_m52            0.0000     1.1557E+02    10.9339   0.7500   129.0753
 91      0.0000     0.0000E+00    0.0000E+00    1.278050E+09  0.00800  2.242E-04    0   0.5907   age138_m52            0.0000     9.1637E+01     8.5919   0.3316   118.6456
 92      0.0000     0.0000E+00    0.0000E+00    1.434000E+09  0.00800  1.645E-04    0   0.5787   age139_m52            0.0000     7.8464E+01     7.8607   0.4972   117.2181
 93      0.0000     0.0000E+00    0.0000E+00    2.500000E+09  0.00800  7.723E-05    0   0.5519   age150_m52            0.0000     9.5716E+01     7.4163   0.2652   108.5784
 94      0.0000     0.0000E+00    0.0000E+00    4.250000E+09  0.00800  4.151E-05    0   0.5320   age158_m52            0.0000     9.7361E+01     7.2366   0.2383   104.1862
 95      0.0000     0.0000E+00    0.0000E+00    6.250000E+09  0.00800  3.010E-05    0   0.5197   age166_m52            0.0000     1.3052E+02     8.0158   0.0645   101.9639
 96      0.0000     0.0000E+00    0.0000E+00    7.500000E+09  0.00800  2.467E-05    0   0.5139   age171_m52            0.0000     1.4064E+02     8.3776   0.0000   101.7123
 97      0.0000     0.0000E+00    0.0000E+00    1.000000E+10  0.00800  1.862E-05    0   0.5054   age181_m52            0.0000     1.7066E+02     9.0372  -0.1084   101.2672
 98      0.0000     0.0000E+00    0.0000E+00    1.300000E+10  0.00800  1.433E-05    0   0.4988   age193_m52            0.0000     2.1440E+02     9.7740  -0.2035   101.9017
 99      0.0000     0.0000E+00    0.0000E+00    1.500000E+10  0.00800  1.244E-05    0   0.4936   age201_m52            0.0000     2.3327E+02    10.0298  -0.2318   102.3530
100      0.0000     0.0000E+00    0.0000E+00    1.800000E+10  0.00800  1.070E-05    0   0.4888   age213_m52            0.0000     2.4375E+02    10.2558  -0.2681   102.2780
101      0.0000     0.0000E+00    0.0000E+00    1.000000E+06  0.02000  1.989E-02    0   1.0000   age020_m62            0.0000     3.9774E+02    20.6312   4.0000    69.6292
102      0.0000     0.0000E+00    0.0000E+00    3.160000E+06  0.02000  3.772E-02    0   0.9858   age045_m62            0.0000     2.7135E+02    16.5628   4.0000    72.2965
103      0.0000     0.0000E+00    0.0000E+00    5.010000E+06  0.02000  3.227E-02    0   0.9342   age055_m62            0.0000     4.3400E+01     5.6760   3.7428    83.4510
104      0.0000     0.0000E+00    0.0000E+00    6.610000E+06  0.02000  2.387E-02    0   0.9090   age061_m62            0.0000     7.2404E+01     7.9510   3.5661    80.4837
105      0.0000     0.0000E+00    0.0000E+00    8.710000E+06  0.02000  1.102E-02    0   0.8861   age067_m62            0.0000     2.1608E+02    14.9929   3.3614    70.8431
106      0.0000     0.0000E+00    0.0000E+00    1.000000E+07  0.02000  1.011E-02    0   0.8751   age070_m62            0.0000     1.5516E+02    12.3428   3.3244    74.8531
107      0.0000     0.0000E+00    0.0000E+00    1.445000E+07  0.02000  7.331E-03    0   0.8472   age078_m62            0.0000     1.1327E+02    10.0664   3.2911    77.8848
108      0.0000     0.0000E+00    0.0000E+00    2.512000E+07  0.02000  4.206E-03    0   0.8099   age090_m62            0.0000     1.2673E+02    10.1538   3.2059    77.4408
109      0.0000     0.0000E+00    0.0000E+00    4.000000E+07  0.02000  3.373E-03    0   0.7799   age104_m62            0.0000     3.3022E+01     3.5637   2.7804    94.1180
110      0.0000     0.0000E+00    0.0000E+00    5.500000E+07  0.02000  2.747E-03    0   0.7595   age110_m62            0.0000     2.9027E+01     3.2356   2.5735   103.2089
111      0.0000     0.0000E+00    0.0000E+00    1.015200E+08  0.02000  1.878E-03    0   0.7221   age116_m62            0.0000     9.1091E+01     8.3064   2.1870   118.7555
112      0.0000     0.0000E+00    0.0000E+00    1.609000E+08  0.02000  1.378E-03    0   0.6978   age120_m62            0.0000     1.6060E+02    11.4814   1.8818   128.3000
113      0.0000     0.0000E+00    0.0000E+00    2.861200E+08  0.02000  8.869E-04    0   0.6700   age125_m62            0.0000     3.0141E+02    15.8964   1.2884   143.6849
114      0.0000     0.0000E+00    0.0000E+00    5.088000E+08  0.02000  4.834E-04    0   0.6430   age130_m62            0.0000     2.5128E+02    15.3910   0.8946   144.4671
115      0.0000     0.0000E+00    0.0000E+00    9.047900E+08  0.02000  2.312E-04    0   0.6152   age135_m62            0.0000     1.1424E+02    10.7791   0.5642   130.6949
116      0.0000     0.0000E+00    0.0000E+00    1.278050E+09  0.02000  1.387E-04    0   0.5927   age138_m62            0.0000     6.9807E+01     7.8735   0.3831   116.7670
117      0.0000     0.0000E+00    0.0000E+00    1.434000E+09  0.02000  1.168E-04    0   0.5865   age139_m62            0.0000     6.8228E+01     7.5222   0.3962   113.3515
118      0.0000     0.0000E+00    0.0000E+00    2.500000E+09  0.02000  5.505E-05    0   0.5610   age150_m62            0.0000     1.0732E+02     8.1913   0.1015   106.9589
119      0.0000     0.0000E+00    0.0000E+00    4.250000E+09  0.02000  3.070E-05    0   0.5407   age158_m62            0.0000     1.7494E+02     9.8799  -0.1916   106.8198
120      0.0000     0.0000E+00    0.0000E+00    6.250000E+09  0.02000  2.104E-05    0   0.5277   age166_m62            0.0000     2.2018E+02    10.6977  -0.3237   107.2436
121      0.0000     0.0000E+00    0.0000E+00    7.500000E+09  0.02000  1.770E-05    0   0.5223   age171_m62            0.0000     2.4404E+02    11.1742  -0.4191   107.9121
122      0.0000     0.0000E+00    0.0000E+00    1.000000E+10  0.02000  1.297E-05    0   0.5121   age181_m62            0.0000     2.9957E+02    12.1037  -0.5898   108.9272
123      0.0000     0.0000E+00    0.0000E+00    1.300000E+10  0.02000  9.691E-06    0   0.5047   age193_m62            0.0000     3.4354E+02    12.6907  -0.6834   109.6807
124      0.0000     0.0000E+00    0.0000E+00    1.500000E+10  0.02000  8.360E-06    0   0.4999   age201_m62            0.0000     3.7767E+02    13.2254  -0.7656   110.4105
125      0.0000     0.0000E+00    0.0000E+00    1.800000E+10  0.02000  6.911E-06    0   0.4946   age213_m62            0.0000     4.1731E+02    13.9343  -0.8615   111.4922
126      0.0000     0.0000E+00    0.0000E+00    1.000000E+06  0.05000  2.651E-02    0   0.9998   age020_m72            0.0000     3.8234E+02    20.1206   4.0000    70.7691
127      0.0000     0.0000E+00    0.0000E+00    3.160000E+06  0.05000  4.817E-02    0   0.9577   age045_m72            0.0000     1.3256E+02    10.5607   4.0000    76.8802
128      0.0000     0.0000E+00    0.0000E+00    5.010000E+06  0.05000  3.101E-02    0   0.9147   age055_m72            0.0000     8.6628E+01     8.2036   3.8529    78.7599
129      0.0000     0.0000E+00    0.0000E+00    6.610000E+06  0.05000  1.472E-02    0   0.8877   age061_m72            0.0000     1.8151E+02    12.9051   3.5263    73.2943
130      0.0000     0.0000E+00    0.0000E+00    8.710000E+06  0.05000  1.050E-02    0   0.8638   age067_m72            0.0000     1.3711E+02    10.4678   3.8699    75.4355
131      0.0000     0.0000E+00    0.0000E+00    1.000000E+07  0.05000  8.954E-03    0   0.8524   age070_m72            0.0000     1.1683E+02     8.9032   4.0000    77.5315
132      0.0000     0.0000E+00    0.0000E+00    1.445000E+07  0.05000  6.392E-03    0   0.8262   age078_m72            0.0000     9.5925E+01     7.7788   4.0000    78.9745
133      0.0000     0.0000E+00    0.0000E+00    2.512000E+07  0.05000  4.207E-03    0   0.7902   age090_m72            0.0000     5.5244E+01     5.4340   3.5492    86.6000
134      0.0000     0.0000E+00    0.0000E+00    4.000000E+07  0.05000  3.198E-03    0   0.7618   age104_m72            0.0000     4.6750E+01     5.2440   2.7251   107.0094
135      0.0000     0.0000E+00    0.0000E+00    5.500000E+07  0.05000  2.593E-03    0   0.7432   age110_m72            0.0000     6.7558E+01     6.8094   2.5447   112.6763
136      0.0000     0.0000E+00    0.0000E+00    1.015200E+08  0.05000  1.716E-03    0   0.7092   age116_m72            0.0000     1.2298E+02     9.6417   2.2048   121.8143
137      0.0000     0.0000E+00    0.0000E+00    1.609000E+08  0.05000  1.218E-03    0   0.6876   age120_m72            0.0000     2.0919E+02    13.0368   1.7754   132.1627
138      0.0000     0.0000E+00    0.0000E+00    2.861200E+08  0.05000  7.047E-04    0   0.6618   age125_m72            0.0000     3.0278E+02    16.3045   1.0738   144.2962
139      0.0000     0.0000E+00    0.0000E+00    5.088000E+08  0.05000  3.590E-04    0   0.6356   age130_m72            0.0000     2.2964E+02    14.8796   0.5871   143.1612
140      0.0000     0.0000E+00    0.0000E+00    9.047900E+08  0.05000  1.484E-04    0   0.6088   age135_m72            0.0000     9.9719E+01     9.5929   0.2247   118.6107
141      0.0000     0.0000E+00    0.0000E+00    1.278050E+09  0.05000  9.435E-05    0   0.5924   age138_m72            0.0000     1.3467E+02    10.0463  -0.0894   111.5330
142      0.0000     0.0000E+00    0.0000E+00    1.434000E+09  0.05000  7.827E-05    0   0.5847   age139_m72            0.0000     1.3665E+02     9.7477  -0.0476   109.6906
143      0.0000     0.0000E+00    0.0000E+00    2.500000E+09  0.05000  3.759E-05    0   0.5583   age150_m72            0.0000     2.1042E+02    10.7598  -0.3301   107.1166
144      0.0000     0.0000E+00    0.0000E+00    4.250000E+09  0.05000  1.842E-05    0   0.5374   age158_m72            0.0000     2.7983E+02    11.9395  -0.6548   106.9139
145      0.0000     0.0000E+00    0.0000E+00    6.250000E+09  0.05000  1.207E-05    0   0.5242   age166_m72            0.0000     3.4284E+02    13.3441  -0.9295   107.9304
146      0.0000     0.0000E+00    0.0000E+00    7.500000E+09  0.05000  9.993E-06    0   0.5183   age171_m72            0.0000     3.4929E+02    13.5567  -0.9814   108.1759
147      0.1583     1.4667E+00    1.5055E+00    1.000000E+10  0.05000  7.291E-06    0   0.5081   age181_m72            0.0000     4.0124E+02    14.4498  -1.0000   108.1764
148      0.3794     4.8223E+00    4.8887E+00    1.300000E+10  0.05000  5.316E-06    0   0.5018   age193_m72            0.0000     5.5160E+02    17.6689  -1.0000   107.2417
149      0.5050     7.5877E+00    7.6216E+00    1.500000E+10  0.05000  4.497E-06    0   0.4972   age201_m72            0.0000     6.4965E+02    19.4212  -1.0000   107.1198
150      0.4014     7.2539E+00    7.2160E+00    1.800000E+10  0.05000  3.739E-06    0   0.4924   age213_m72            0.0000     8.0766E+02    21.7814  -1.0000   106.2115


## Synthesis Results - Average & Chains ##

# j      x_j: min, <> & last-chain-values for 1 ...  7 chains
  1      0.0001      0.4794      0.3853      0.3988      0.3462      0.2698      0.4271      0.4370      0.4982
  2     20.5059     18.4221     19.3729     18.5539     18.9216     18.8940     18.9750     19.3142     18.3964
  3      4.3863      4.1544      4.1501      4.0024      4.1277      4.2859      4.1618      4.1729      3.9928
  4      0.0000      0.0064      0.0000      0.0000      0.0005      0.0000      0.0000      0.0000      0.0000
  5      0.0000      0.0079      0.0000      0.0000      0.0000      0.0000      0.0000      0.0000      0.0000
  6      0.0000      0.0116      0.0161      0.0000      0.0000      0.0000      0.0000      0.0000      0.0000
  7      0.0000      0.0215      0.0000      0.0000      0.0000      0.0000      0.0000      0.0000      0.0000
  8      0.0000      0.1042      0.1297      0.0000      0.0000      0.2419      0.0000      0.0000      0.0000
  9      2.7650      1.3483      1.6859      2.2253      1.4599      1.7675      1.3725      1.3830      1.6812
 10      2.4743      1.1746      1.2728      1.3499      1.3602      1.7264      1.5382      1.3018      1.1380
 11      1.5776      0.8053      0.9745      0.9580      1.2930      1.0883      0.6863      0.7501      1.6682
 12      0.0000      0.0196      0.0424      0.0000      0.0000      0.0000      0.0308      0.0000      0.0076
 13      0.0000      0.0108      0.0000      0.0000      0.0046      0.0000      0.0000      0.0000      0.0000
 14      0.0000      0.0067      0.0349      0.0015      0.0000      0.0000      0.0000      0.0000      0.0000
 15      0.0000      0.0053      0.0000      0.0000      0.0000      0.0000      0.0000      0.0000      0.0000
 16      0.0000      0.0093      0.0000      0.0000      0.0000      0.0000      0.0000      0.0000      0.0000
 17      0.0000      0.0100      0.0000      0.0000      0.0000      0.0103      0.0000      0.0000      0.0000
 18      0.0000      0.0202      0.0000      0.0000      0.0000      0.0000      0.0054      0.0005      0.0000
 19      0.0000      0.0467      0.0000      0.0000      0.0000      0.0010      0.0000      0.0000      0.0000
 20      0.0000      0.1485      0.0766      0.1865      0.4620      0.2115      0.1313      0.0000      0.1150
 21      0.0000      0.6137      0.0312      1.3699      0.2369      0.3464      0.4295      1.3457      0.4268
 22      0.0000      0.3965      0.0000      0.8593      0.0818      0.0000      0.0000      0.0215      0.0000
 23      0.0000      0.2553      0.1908      0.0000      0.0421      0.1092      0.0878      0.2977      0.0000
 24      0.0000      0.3178      0.2262      0.0000      0.5885      0.0356      0.0144      0.2777      0.1001
 25     17.3582     17.2460     17.7197     17.0940     18.0521     17.5224     17.5028     17.2342     17.8139
 26      0.0000      0.0101      0.0000      0.0000      0.0000      0.0610      0.0000      0.0000      0.0000
 27      0.0000      0.0938      0.0575      0.0000      0.0000      0.0000      0.0096      0.1220      0.0086
 28      0.0000      0.0214      0.0000      0.0532      0.0000      0.0000      0.0666      0.0000      0.0000
 29      0.0000      0.0120      0.0842      0.0000      0.0000      0.0838      0.0000      0.0000      0.0000
 30      0.0000      0.0074      0.0805      0.0000      0.0000      0.0000      0.0000      0.0000      0.0072
 31      0.0000      0.0148      0.0000      0.0000      0.0122      0.0000      0.0000      0.0000      0.0000
 32      0.0000      0.0850      0.0926      0.0179      0.1055      0.1684      0.0000      0.2833      0.0697
 33      0.0000      0.0927      0.0300      0.0000      0.2223      0.0000      0.0948      0.0000      0.0000
 34      1.0229      0.7964      0.7384      0.7552      0.7755      0.7782      1.3729      0.9316      1.0745
 35      0.1822      0.4259      0.4947      0.8453      0.0938      0.0000      0.4323      0.7135      0.4299
 36      0.0000      0.0485      0.0000      0.0000      0.0056      0.0000      0.0000      0.0000      0.0000
 37      0.0000      0.0367      0.0000      0.0250      0.0000      0.0000      0.0000      0.0823      0.0000
 38      0.0000      0.0103      0.0000      0.0871      0.0000      0.0000      0.0000      0.0000      0.0000
 39      0.0000      0.0054      0.0000      0.0000      0.0000      0.0000      0.0000      0.0000      0.0000
 40      0.0000      0.0075      0.0000      0.0481      0.0000      0.0000      0.0000      0.0000      0.0000
 41      0.0000      0.0158      0.0000      0.0000      0.0000      0.0000      0.0000      0.0071      0.0000
 42      0.0000      0.0179      0.0000      0.0414      0.0000      0.0180      0.0000      0.0130      0.0000
 43     25.3720     29.2223     28.1265     26.9098     28.6144     28.8537     29.3201     28.8237     27.7901
 44     15.7258     16.3638     16.6612     16.5687     16.4872     17.1614     16.9577     16.5762     16.1269
 45      5.0007      1.4192      2.1273      2.0792      1.3488      1.5954      1.3704      1.1276      2.5899
 46      2.6563      1.2277      1.7869      1.7185      1.4841      1.1137      0.9597      1.3106      1.7333
 47      0.0000      0.2179      0.2052      0.2663      0.4363      0.0000      0.0095      0.1275      0.0000
 48      0.0000      0.2705      0.0000      0.1436      0.0000      0.3470      0.0212      0.0374      0.3613
 49      0.0010      0.1846      0.3024      0.4142      0.0000      0.0000      0.0582      0.1049      0.2969
 50      0.0000      0.1538      0.0000      0.0000      0.0000      0.3059      0.1705      0.0000      0.2902
 51      0.0000      0.0085      0.0000      0.0000      0.0142      0.0033      0.0000      0.0000      0.0000
 52      0.0000      0.1585      0.0000      0.0819      0.0000      0.2204      0.4519      0.1867      0.0000
 53      0.0000      0.0256      0.0000      0.0239      0.0727      0.0024      0.0000      0.0000      0.0000
 54      0.0011      0.7626      0.9254      0.8799      0.8473      0.8236      1.0028      0.9151      0.7356
 55      0.0006      0.4950      0.5702      0.4022      0.4109      0.5184      0.0584      0.6084      0.5300
 56      0.0000      0.2329      0.0000      0.2657      0.2908      0.2151      0.3938      0.2210      0.1873
 57      0.0000      0.0409      0.0000      0.0080      0.0000      0.0000      0.0000      0.0000      0.0000
 58      0.0000      0.0401      0.0000      0.0158      0.0876      0.0000      0.0000      0.0000      0.0000
 59      0.0000      0.0109      0.0010      0.0038      0.0000      0.0072      0.0000      0.1581      0.0000
 60      0.0000      0.0149      0.0000      0.0081      0.0015      0.0000      0.1081      0.0000      0.0000
 61      0.0000      0.0188      0.0000      0.0000      0.0000      0.0000      0.0000      0.0000      0.0000
 62      0.0000      0.0142      0.0096      0.0000      0.0000      0.0000      0.0000      0.0000      0.0000
 63      0.0000      0.0059      0.0000      0.0235      0.0000      0.0000      0.0000      0.0000      0.0000
 64      0.0000      0.0077      0.0000      0.0000      0.0000      0.0000      0.0038      0.0000      0.0000
 65      0.0000      0.0109      0.0000      0.0000      0.0052      0.0000      0.0100      0.0000      0.0000
 66      0.0000      0.0061      0.0000      0.0000      0.0000      0.0000      0.0000      0.0000      0.0000
 67      0.0000      0.0066      0.0391      0.0000      0.0000      0.0000      0.0000      0.0000      0.0000
 68      0.0000      0.0056      0.0000      0.0000      0.0000      0.0000      0.0000      0.0000      0.0000
 69      0.0000      0.0075      0.0000      0.0000      0.0000      0.0000      0.0000      0.0000      0.0000
 70      0.0000      0.0083      0.0000      0.0000      0.0000      0.0000      0.0000      0.0000      0.0000
 71      0.0000      0.0055      0.0000      0.0000      0.0012      0.0000      0.0000      0.0000      0.0284
 72      0.0000      0.0089      0.0000      0.0000      0.0000      0.0000      0.0000      0.0000      0.0000
 73      0.0000      0.0076      0.0000      0.0000      0.0000      0.0000      0.0000      0.0000      0.0000
 74      0.0000      0.0061      0.0000      0.1063      0.0000      0.0000      0.0000      0.0000      0.0000
 75      0.0000      0.0084      0.0067      0.0000      0.0000      0.1099      0.0393      0.0000      0.0000
 76      0.0000      0.0051      0.0000      0.0000      0.0113      0.0000      0.0000      0.0000      0.0000
 77      0.0000      0.0106      0.0000      0.0000      0.0000      0.0000      0.0000      0.0000      0.0390
 78      0.0000      0.0080      0.0000      0.0000      0.0054      0.0000      0.0000      0.0000      0.0264
 79      0.0000      0.0086      0.0000      0.0000      0.0000      0.0000      0.0306      0.0000      0.0000
 80      0.0000      0.0146      0.0000      0.0000      0.0000      0.0000      0.0000      0.0000      0.0000
 81      0.0000      0.0126      0.0000      0.0000      0.0000      0.0000      0.0000      0.0000      0.0000
 82      0.0000      0.0181      0.0000      0.0000      0.0000      0.0000      0.0000      0.0012      0.0000
 83      0.0000      0.0537      0.0000      0.0000      0.0269      0.0000      0.1350      0.0000      0.2572
 84      0.0000      0.0281      0.0000      0.0000      0.0000      0.0000      0.0000      0.0000      0.0000
 85      0.0000      0.0231      0.2226      0.0000      0.0000      0.0000      0.0000      0.0020      0.0000
 86      0.0000      0.0133      0.0000      0.0000      0.0000      0.0097      0.0000      0.0000      0.0000
 87      0.0000      0.0095      0.0066      0.0000      0.0042      0.0000      0.0000      0.0000      0.0088
 88      0.0000      0.0044      0.0000      0.0000      0.0000      0.0000      0.0000      0.0000      0.0000
 89      0.0000      0.0035      0.0000      0.0000      0.0000      0.0000      0.0000      0.0000      0.0000
 90      0.0000      0.0017      0.0000      0.0000      0.0000      0.0000      0.0000      0.0002      0.0000
 91      0.0000      0.0029      0.0000      0.0000      0.0000      0.0000      0.0000      0.0000      0.0000
 92      0.0000      0.0039      0.0000      0.0000      0.0000      0.0000      0.0000      0.0000      0.0000
 93      0.0000      0.0046      0.0000      0.0000      0.0000      0.0000      0.0000      0.0000      0.0036
 94      0.0000      0.0040      0.0000      0.0000      0.0000      0.0000      0.0000      0.0000      0.0000
 95      0.0000      0.0057      0.0000      0.0000      0.0000      0.0000      0.0000      0.0000      0.0000
 96      0.0000      0.0052      0.0000      0.0000      0.0000      0.0000      0.0000      0.0000      0.0000
 97      0.0000      0.0043      0.0000      0.0000      0.0000      0.0000      0.0000      0.0000      0.0000
 98      0.0000      0.0036      0.0000      0.1190      0.0000      0.0000      0.0000      0.0000      0.0000
 99      0.0000      0.0045      0.0000      0.0000      0.0000      0.0000      0.0000      0.0000      0.0000
100      0.0000      0.0029      0.0000      0.0000      0.0000      0.0000      0.0000      0.0000      0.0000
101      0.0000      0.0054      0.0000      0.0000      0.0000      0.0345      0.0000      0.0000      0.0000
102      0.0000      0.0047      0.0000      0.0000      0.0187      0.0000      0.0000      0.0000      0.0000
103      0.0000      0.0560      0.0000      0.0000      0.1307      0.0000      0.0047      0.0760      0.1521
104      0.0000      0.0490      0.0449      0.0000      0.1099      0.0000      0.0000      0.0000      0.2013
105      0.0000      0.0261      0.0000      0.0391      0.0000      0.0000      0.1597      0.0000      0.0000
106      0.0000      0.0255      0.0000      0.0000      0.1200      0.0000      0.0197      0.0000      0.0000
107      0.0000      0.0152      0.0000      0.0000      0.1851      0.0000      0.0000      0.0123      0.0000
108      0.0000      0.0058      0.0000      0.0059      0.0000      0.0000      0.0000      0.0000      0.0000
109      0.0000      0.0089      0.0041      0.0000      0.0000      0.0000      0.0000      0.0000      0.0000
110      0.0000      0.0104      0.0000      0.0000      0.0000      0.0000      0.0000      0.0000      0.0000
111      0.0000      0.0103      0.0000      0.0000      0.0000      0.0000      0.0000      0.0000      0.0296
112      0.0000      0.0078      0.0000      0.0000      0.0000      0.0000      0.0000      0.0000      0.0071
113      0.0000      0.0034      0.0000      0.0081      0.0000      0.0000      0.0000      0.0000      0.0000
114      0.0000      0.0027      0.0000      0.0000      0.0000      0.0000      0.0000      0.0000      0.0000
115      0.0000      0.0030      0.0027      0.0000      0.0000      0.0000      0.0000      0.0000      0.0000
116      0.0000      0.0044      0.0029      0.0000      0.0000      0.0000      0.0000      0.0000      0.0000
117      0.0000      0.0029      0.0000      0.0000      0.0000      0.0000      0.0000      0.0000      0.0000
118      0.0000      0.0052      0.0000      0.0000      0.0000      0.0000      0.0000      0.0000      0.0000
119      0.0000      0.0055      0.0000      0.0000      0.0000      0.0000      0.0000      0.0000      0.0000
120      0.0000      0.0054      0.0000      0.0000      0.0085      0.0000      0.0042      0.0016      0.0000
121      0.0000      0.0053      0.0000      0.0000      0.0000      0.0000      0.0000      0.0000      0.0000
122      0.0000      0.0065      0.0000      0.0000      0.0000      0.0000      0.0000      0.0000      0.0000
123      0.0000      0.0055      0.0000      0.0000      0.0000      0.0000      0.0000      0.0000      0.0000
124      0.0000      0.0069      0.0000      0.0000      0.0000      0.0000      0.0000      0.0000      0.0000
125      0.0000      0.0087      0.0000      0.0000      0.0000      0.0000      0.0000      0.0000      0.0000
126      0.0000      0.0059      0.0355      0.0000      0.0000      0.0000      0.0000      0.0000      0.0000
127      0.0000      0.0096      0.0000      0.0000      0.0000      0.0000      0.0000      0.0000      0.0000
128      0.0000      0.0100      0.0000      0.0000      0.0000      0.1152      0.0051      0.0000      0.0000
129      0.0000      0.0100      0.0961      0.0000      0.0000      0.0000      0.0000      0.0000      0.0000
130      0.0000      0.0080      0.0000      0.0000      0.0000      0.0000      0.0718      0.0000      0.0885
131      0.0000      0.0044      0.0014      0.0311      0.0000      0.0000      0.0000      0.0000      0.0000
132      0.0000      0.0039      0.0000      0.0000      0.0000      0.0000      0.0000      0.0000      0.0000
133      0.0000      0.0056      0.0000      0.0000      0.0000      0.0000      0.0000      0.0000      0.0000
134      0.0000      0.0059      0.0000      0.0000      0.0000      0.0000      0.0000      0.0000      0.0000
135      0.0000      0.0094      0.0137      0.0000      0.0000      0.0000      0.0000      0.0000      0.0048
136      0.0000      0.0100      0.0000      0.0000      0.0000      0.0000      0.0000      0.0000      0.0000
137      0.0000      0.0059      0.0000      0.0000      0.0205      0.0288      0.0000      0.0000      0.0000
138      0.0000      0.0033      0.0000      0.0000      0.0000      0.0000      0.0000      0.0000      0.0000
139      0.0000      0.0027      0.0000      0.0000      0.0000      0.0000      0.0000      0.0000      0.0000
140      0.0000      0.0038      0.0000      0.0000      0.0026      0.0000      0.0000      0.0000      0.0000
141      0.0000      0.0034      0.0000      0.0000      0.0000      0.0000      0.0000      0.0000      0.0000
142      0.0000      0.0031      0.0000      0.0000      0.0000      0.0000      0.0000      0.0000      0.0000
143      0.0000      0.0036      0.0000      0.0000      0.0000      0.0000      0.0000      0.0000      0.0000
144      0.0000      0.0134      0.0000      0.0000      0.0468      0.0000      0.0499      0.0000      0.0000
145      0.0000      0.0725      0.0000      0.0000      0.0000      0.0000      0.3585      0.1284      0.0000
146      0.0000      0.3673      0.1711      0.3384      0.3865      0.0863      0.3601      0.3683      0.3484
147      0.1583      0.3514      0.3279      0.3465      0.2284      0.4406      0.4242      0.2706      0.3530
148      0.3794      0.2853      0.3063      0.2452      0.2900      0.3173      0.2693      0.2855      0.2757
149      0.5050      0.4024      0.3967      0.4141      0.5000      0.4204      0.3292      0.3806      0.4103
150      0.4014      0.3375      0.3432      0.3450      0.2994      0.4055      0.2751      0.3241      0.3322

# j      m_j: min, <> & last-chain-values for 1 ...  7 chains
  1  2.1159E-06  7.8407E-03  6.4486E-03  6.5341E-03  5.6822E-03  4.4384E-03  7.1605E-03  7.3650E-03  8.1556E-03
  2  5.8816E-02  5.1663E-02  5.5597E-02  5.2130E-02  5.3256E-02  5.3287E-02  5.4542E-02  5.5820E-02  5.1638E-02
  3  2.9695E-02  2.7499E-02  2.8111E-02  2.6542E-02  2.7421E-02  2.8530E-02  2.8235E-02  2.8465E-02  2.6453E-02
  4  0.0000E+00  7.9601E-05  0.0000E+00  0.0000E+00  6.3297E-06  0.0000E+00  0.0000E+00  0.0000E+00  0.0000E+00
  5  0.0000E+00  1.2394E-04  0.0000E+00  0.0000E+00  0.0000E+00  0.0000E+00  0.0000E+00  0.0000E+00  0.0000E+00
  6  0.0000E+00  2.1557E-04  3.0656E-04  0.0000E+00  0.0000E+00  0.0000E+00  0.0000E+00  0.0000E+00  0.0000E+00
  7  0.0000E+00  5.0574E-04  0.0000E+00  0.0000E+00  0.0000E+00  0.0000E+00  0.0000E+00  0.0000E+00  0.0000E+00
  8  0.0000E+00  2.7696E-03  3.5281E-03  0.0000E+00  0.0000E+00  6.4684E-03  0.0000E+00  0.0000E+00  0.0000E+00
  9  8.0876E-02  3.8560E-02  4.9339E-02  6.3760E-02  4.1901E-02  5.0837E-02  4.0233E-02  4.0761E-02  4.8125E-02
 10  8.2955E-02  3.8505E-02  4.2698E-02  4.4334E-02  4.4751E-02  5.6915E-02  5.1681E-02  4.3978E-02  3.7338E-02
 11  6.3229E-02  3.1557E-02  3.9080E-02  3.7610E-02  5.0851E-02  4.2892E-02  2.7565E-02  3.0291E-02  6.5433E-02
 12  0.0000E+00  1.3423E-03  2.9738E-03  0.0000E+00  0.0000E+00  0.0000E+00  2.1665E-03  0.0000E+00  5.1807E-04
 13  0.0000E+00  8.6351E-04  0.0000E+00  0.0000E+00  3.6743E-04  0.0000E+00  0.0000E+00  0.0000E+00  0.0000E+00
 14  0.0000E+00  7.6162E-04  4.0400E-03  1.7259E-04  0.0000E+00  0.0000E+00  0.0000E+00  0.0000E+00  0.0000E+00
 15  0.0000E+00  9.0162E-04  0.0000E+00  0.0000E+00  0.0000E+00  0.0000E+00  0.0000E+00  0.0000E+00  0.0000E+00
 16  0.0000E+00  2.2908E-03  0.0000E+00  0.0000E+00  0.0000E+00  0.0000E+00  0.0000E+00  0.0000E+00  0.0000E+00
 17  0.0000E+00  2.7352E-03  0.0000E+00  0.0000E+00  0.0000E+00  2.8396E-03  0.0000E+00  0.0000E+00  0.0000E+00
 18  0.0000E+00  9.0156E-03  0.0000E+00  0.0000E+00  0.0000E+00  0.0000E+00  2.4832E-03  2.3094E-04  0.0000E+00
 19  0.0000E+00  3.1634E-02  0.0000E+00  0.0000E+00  0.0000E+00  6.7912E-04  0.0000E+00  0.0000E+00  0.0000E+00
 20  0.0000E+00  1.4382E-01  7.5908E-02  1.8096E-01  4.4913E-01  2.0602E-01  1.3039E-01  0.0000E+00  1.1149E-01
 21  0.0000E+00  6.8765E-01  3.5804E-02  1.5379E+00  2.6638E-01  3.9037E-01  4.9323E-01  1.5540E+00  4.7873E-01
 22  0.0000E+00  5.7321E-01  0.0000E+00  1.2446E+00  1.1869E-01  0.0000E+00  0.0000E+00  3.1973E-02  0.0000E+00
 23  0.0000E+00  4.6795E-01  3.5782E-01  0.0000E+00  7.7464E-02  2.0134E-01  1.6496E-01  5.6230E-01  0.0000E+00
 24  0.0000E+00  6.6613E-01  4.8519E-01  0.0000E+00  1.2378E+00  7.4956E-02  3.0854E-02  5.9979E-01  2.0991E-01
 25  4.4698E+01  4.3420E+01  4.5654E+01  4.3118E+01  4.5614E+01  4.4367E+01  4.5166E+01  4.4716E+01  4.4891E+01
 26  0.0000E+00  1.5928E-04  0.0000E+00  0.0000E+00  0.0000E+00  9.6736E-04  0.0000E+00  0.0000E+00  0.0000E+00
 27  0.0000E+00  3.1510E-04  1.9768E-04  0.0000E+00  0.0000E+00  0.0000E+00  3.2898E-05  4.2226E-04  2.8988E-05
 28  0.0000E+00  1.4070E-04  0.0000E+00  3.5024E-04  0.0000E+00  0.0000E+00  4.4903E-04  0.0000E+00  0.0000E+00
 29  0.0000E+00  1.2264E-04  8.8300E-04  0.0000E+00  0.0000E+00  8.6387E-04  0.0000E+00  0.0000E+00  0.0000E+00
 30  0.0000E+00  9.4621E-05  1.0493E-03  0.0000E+00  0.0000E+00  0.0000E+00  0.0000E+00  0.0000E+00  9.2206E-05
 31  0.0000E+00  2.1799E-04  0.0000E+00  0.0000E+00  1.7997E-04  0.0000E+00  0.0000E+00  0.0000E+00  0.0000E+00
 32  0.0000E+00  1.3852E-03  1.5445E-03  2.9278E-04  1.7251E-03  2.7595E-03  0.0000E+00  4.7562E-03  1.1365E-03
 33  0.0000E+00  2.1462E-03  7.1064E-04  0.0000E+00  5.1654E-03  0.0000E+00  2.2500E-03  0.0000E+00  0.0000E+00
 34  2.9426E-02  2.2398E-02  2.1253E-02  2.1280E-02  2.1892E-02  2.2013E-02  3.9578E-02  2.7003E-02  3.0249E-02
 35  6.3323E-03  1.4475E-02  1.7202E-02  2.8780E-02  3.1991E-03  0.0000E+00  1.5056E-02  2.4989E-02  1.4621E-02
 36  0.0000E+00  2.1115E-03  0.0000E+00  0.0000E+00  2.4389E-04  0.0000E+00  0.0000E+00  0.0000E+00  0.0000E+00
 37  0.0000E+00  1.9861E-03  0.0000E+00  1.3588E-03  0.0000E+00  0.0000E+00  0.0000E+00  4.5894E-03  0.0000E+00
 38  0.0000E+00  7.8010E-04  0.0000E+00  6.5799E-03  0.0000E+00  0.0000E+00  0.0000E+00  0.0000E+00  0.0000E+00
 39  0.0000E+00  6.0353E-04  0.0000E+00  0.0000E+00  0.0000E+00  0.0000E+00  0.0000E+00  0.0000E+00  0.0000E+00
 40  0.0000E+00  1.4977E-03  0.0000E+00  9.5708E-03  0.0000E+00  0.0000E+00  0.0000E+00  0.0000E+00  0.0000E+00
 41  0.0000E+00  4.2007E-03  0.0000E+00  0.0000E+00  0.0000E+00  0.0000E+00  0.0000E+00  1.9577E-03  0.0000E+00
 42  0.0000E+00  5.3110E-03  0.0000E+00  1.2323E-02  0.0000E+00  5.3629E-03  0.0000E+00  3.9887E-03  0.0000E+00
 43  1.2536E+01  1.4117E+01  1.3904E+01  1.3024E+01  1.3873E+01  1.4018E+01  1.4517E+01  1.4350E+01  1.3437E+01
 44  1.2288E+01  1.2502E+01  1.3026E+01  1.2682E+01  1.2642E+01  1.3186E+01  1.3279E+01  1.3051E+01  1.2332E+01
 45  5.4462E+00  1.5112E+00  2.3181E+00  2.2181E+00  1.4414E+00  1.7085E+00  1.4957E+00  1.2373E+00  2.7604E+00
 46  3.4462E+00  1.5573E+00  2.3196E+00  2.1840E+00  1.8894E+00  1.4207E+00  1.2477E+00  1.7133E+00  2.2008E+00
 47  0.0000E+00  3.6223E-01  3.4916E-01  4.4361E-01  7.2795E-01  0.0000E+00  1.6256E-02  2.1852E-01  0.0000E+00
 48  0.0000E+00  5.3557E-01  0.0000E+00  2.8479E-01  0.0000E+00  6.9080E-01  4.3050E-02  7.6294E-02  7.1591E-01
 49  2.3565E-03  4.0888E-01  6.8548E-01  9.1901E-01  0.0000E+00  0.0000E+00  1.3208E-01  2.3943E-01  6.5819E-01
 50  0.0000E+00  4.0060E-01  0.0000E+00  0.0000E+00  0.0000E+00  8.0129E-01  4.5511E-01  0.0000E+00  7.5652E-01
 51  0.0000E+00  1.0198E-04  0.0000E+00  0.0000E+00  1.7089E-04  3.9711E-05  0.0000E+00  0.0000E+00  0.0000E+00
 52  0.0000E+00  5.1918E-04  0.0000E+00  2.6888E-04  0.0000E+00  7.2615E-04  1.5176E-03  6.3046E-04  0.0000E+00
 53  0.0000E+00  1.2798E-04  0.0000E+00  1.1970E-04  3.6460E-04  1.2160E-05  0.0000E+00  0.0000E+00  0.0000E+00
 54  5.3623E-06  3.6332E-03  4.5112E-03  4.1995E-03  4.0509E-03  3.9461E-03  4.8962E-03  4.4928E-03  3.5074E-03
 55  4.1471E-06  3.4789E-03  4.1005E-03  2.8318E-03  2.8979E-03  3.6637E-03  4.2096E-04  4.4063E-03  3.7282E-03
 56  0.0000E+00  2.1672E-03  0.0000E+00  2.4773E-03  2.7163E-03  2.0132E-03  3.7561E-03  2.1189E-03  1.7441E-03
 57  0.0000E+00  6.1014E-04  0.0000E+00  1.1901E-04  0.0000E+00  0.0000E+00  0.0000E+00  0.0000E+00  0.0000E+00
 58  0.0000E+00  8.6375E-04  0.0000E+00  3.4078E-04  1.8927E-03  0.0000E+00  0.0000E+00  0.0000E+00  0.0000E+00
 59  0.0000E+00  3.2467E-04  3.0820E-05  1.1258E-04  0.0000E+00  2.1725E-04  0.0000E+00  4.8720E-03  0.0000E+00
 60  0.0000E+00  4.9627E-04  0.0000E+00  2.7079E-04  5.0553E-05  0.0000E+00  3.6866E-03  0.0000E+00  0.0000E+00
 61  0.0000E+00  7.9869E-04  0.0000E+00  0.0000E+00  0.0000E+00  0.0000E+00  0.0000E+00  0.0000E+00  0.0000E+00
 62  0.0000E+00  7.6156E-04  5.3090E-04  0.0000E+00  0.0000E+00  0.0000E+00  0.0000E+00  0.0000E+00  0.0000E+00
 63  0.0000E+00  4.8172E-04  0.0000E+00  1.9269E-03  0.0000E+00  0.0000E+00  0.0000E+00  0.0000E+00  0.0000E+00
 64  0.0000E+00  1.0317E-03  0.0000E+00  0.0000E+00  0.0000E+00  0.0000E+00  5.1833E-04  0.0000E+00  0.0000E+00
 65  0.0000E+00  2.4692E-03  0.0000E+00  0.0000E+00  1.1798E-03  0.0000E+00  2.3377E-03  0.0000E+00  0.0000E+00
 66  0.0000E+00  1.7751E-03  0.0000E+00  0.0000E+00  0.0000E+00  0.0000E+00  0.0000E+00  0.0000E+00  0.0000E+00
 67  0.0000E+00  2.6207E-03  1.5990E-02  0.0000E+00  0.0000E+00  0.0000E+00  0.0000E+00  0.0000E+00  0.0000E+00
 68  0.0000E+00  4.1842E-03  0.0000E+00  0.0000E+00  0.0000E+00  0.0000E+00  0.0000E+00  0.0000E+00  0.0000E+00
 69  0.0000E+00  9.6468E-03  0.0000E+00  0.0000E+00  0.0000E+00  0.0000E+00  0.0000E+00  0.0000E+00  0.0000E+00
 70  0.0000E+00  1.4796E-02  0.0000E+00  0.0000E+00  0.0000E+00  0.0000E+00  0.0000E+00  0.0000E+00  0.0000E+00
 71  0.0000E+00  1.1570E-02  0.0000E+00  0.0000E+00  2.4582E-03  0.0000E+00  0.0000E+00  0.0000E+00  5.9834E-02
 72  0.0000E+00  2.4522E-02  0.0000E+00  0.0000E+00  0.0000E+00  0.0000E+00  0.0000E+00  0.0000E+00  0.0000E+00
 73  0.0000E+00  2.6608E-02  0.0000E+00  0.0000E+00  0.0000E+00  0.0000E+00  0.0000E+00  0.0000E+00  0.0000E+00
 74  0.0000E+00  2.3653E-02  0.0000E+00  4.1504E-01  0.0000E+00  0.0000E+00  0.0000E+00  0.0000E+00  0.0000E+00
 75  0.0000E+00  3.7410E-02  3.0502E-02  0.0000E+00  0.0000E+00  4.9505E-01  1.8054E-01  0.0000E+00  0.0000E+00
 76  0.0000E+00  5.2694E-05  0.0000E+00  0.0000E+00  1.1764E-04  0.0000E+00  0.0000E+00  0.0000E+00  0.0000E+00
 77  0.0000E+00  4.4742E-05  0.0000E+00  0.0000E+00  0.0000E+00  0.0000E+00  0.0000E+00  0.0000E+00  1.6487E-04
 78  0.0000E+00  3.7647E-05  0.0000E+00  0.0000E+00  2.5638E-05  0.0000E+00  0.0000E+00  0.0000E+00  1.2520E-04
 79  0.0000E+00  4.9112E-05  0.0000E+00  0.0000E+00  0.0000E+00  0.0000E+00  1.7880E-04  0.0000E+00  0.0000E+00
 80  0.0000E+00  1.0706E-04  0.0000E+00  0.0000E+00  0.0000E+00  0.0000E+00  0.0000E+00  0.0000E+00  0.0000E+00
 81  0.0000E+00  1.2198E-04  0.0000E+00  0.0000E+00  0.0000E+00  0.0000E+00  0.0000E+00  0.0000E+00  0.0000E+00
 82  0.0000E+00  2.3694E-04  0.0000E+00  0.0000E+00  0.0000E+00  0.0000E+00  0.0000E+00  1.5967E-05  0.0000E+00
 83  0.0000E+00  1.0304E-03  0.0000E+00  0.0000E+00  5.1804E-04  0.0000E+00  2.6554E-03  0.0000E+00  4.9406E-03
 84  0.0000E+00  7.4589E-04  0.0000E+00  0.0000E+00  0.0000E+00  0.0000E+00  0.0000E+00  0.0000E+00  0.0000E+00
 85  0.0000E+00  7.4658E-04  7.3493E-03  0.0000E+00  0.0000E+00  0.0000E+00  0.0000E+00  6.5329E-05  0.0000E+00
 86  0.0000E+00  5.8118E-04  0.0000E+00  0.0000E+00  0.0000E+00  4.2690E-04  0.0000E+00  0.0000E+00  0.0000E+00
 87  0.0000E+00  5.5370E-04  3.9371E-04  0.0000E+00  2.4595E-04  0.0000E+00  0.0000E+00  0.0000E+00  5.1455E-04
 88  0.0000E+00  3.8855E-04  0.0000E+00  0.0000E+00  0.0000E+00  0.0000E+00  0.0000E+00  0.0000E+00  0.0000E+00
 89  0.0000E+00  5.1514E-04  0.0000E+00  0.0000E+00  0.0000E+00  0.0000E+00  0.0000E+00  0.0000E+00  0.0000E+00
 90  0.0000E+00  4.6035E-04  0.0000E+00  0.0000E+00  0.0000E+00  0.0000E+00  0.0000E+00  4.6887E-05  0.0000E+00
 91  0.0000E+00  1.0101E-03  0.0000E+00  0.0000E+00  0.0000E+00  0.0000E+00  0.0000E+00  0.0000E+00  0.0000E+00
 92  0.0000E+00  1.8189E-03  0.0000E+00  0.0000E+00  0.0000E+00  0.0000E+00  0.0000E+00  0.0000E+00  0.0000E+00
 93  0.0000E+00  4.3611E-03  0.0000E+00  0.0000E+00  0.0000E+00  0.0000E+00  0.0000E+00  0.0000E+00  3.4482E-03
 94  0.0000E+00  6.8121E-03  0.0000E+00  0.0000E+00  0.0000E+00  0.0000E+00  0.0000E+00  0.0000E+00  0.0000E+00
 95  0.0000E+00  1.3036E-02  0.0000E+00  0.0000E+00  0.0000E+00  0.0000E+00  0.0000E+00  0.0000E+00  0.0000E+00
 96  0.0000E+00  1.4479E-02  0.0000E+00  0.0000E+00  0.0000E+00  0.0000E+00  0.0000E+00  0.0000E+00  0.0000E+00
 97  0.0000E+00  1.5662E-02  0.0000E+00  0.0000E+00  0.0000E+00  0.0000E+00  0.0000E+00  0.0000E+00  0.0000E+00
 98  0.0000E+00  1.6908E-02  0.0000E+00  5.5370E-01  0.0000E+00  0.0000E+00  0.0000E+00  0.0000E+00  0.0000E+00
 99  0.0000E+00  2.3860E-02  0.0000E+00  0.0000E+00  0.0000E+00  0.0000E+00  0.0000E+00  0.0000E+00  0.0000E+00
100  0.0000E+00  1.7964E-02  0.0000E+00  0.0000E+00  0.0000E+00  0.0000E+00  0.0000E+00  0.0000E+00  0.0000E+00
101  0.0000E+00  3.6532E-05  0.0000E+00  0.0000E+00  0.0000E+00  2.3261E-04  0.0000E+00  0.0000E+00  0.0000E+00
102  0.0000E+00  1.6462E-05  0.0000E+00  0.0000E+00  6.5332E-05  0.0000E+00  0.0000E+00  0.0000E+00  0.0000E+00
103  0.0000E+00  2.1642E-04  0.0000E+00  0.0000E+00  5.0684E-04  0.0000E+00  1.8809E-05  3.0260E-04  5.8802E-04
104  0.0000E+00  2.4879E-04  2.3368E-04  0.0000E+00  5.6062E-04  0.0000E+00  0.0000E+00  0.0000E+00  1.0242E-03
105  0.0000E+00  2.8011E-04  0.0000E+00  4.2009E-04  0.0000E+00  0.0000E+00  1.7569E-03  0.0000E+00  0.0000E+00
106  0.0000E+00  2.9448E-04  0.0000E+00  0.0000E+00  1.3908E-03  0.0000E+00  2.3353E-04  0.0000E+00  0.0000E+00
107  0.0000E+00  2.3458E-04  0.0000E+00  0.0000E+00  2.8651E-03  0.0000E+00  0.0000E+00  1.9538E-04  0.0000E+00
108  0.0000E+00  1.4977E-04  0.0000E+00  1.5105E-04  0.0000E+00  0.0000E+00  0.0000E+00  0.0000E+00  0.0000E+00
109  0.0000E+00  2.7442E-04  1.2855E-04  0.0000E+00  0.0000E+00  0.0000E+00  0.0000E+00  0.0000E+00  0.0000E+00
110  0.0000E+00  3.8192E-04  0.0000E+00  0.0000E+00  0.0000E+00  0.0000E+00  0.0000E+00  0.0000E+00  0.0000E+00
111  0.0000E+00  5.3086E-04  0.0000E+00  0.0000E+00  0.0000E+00  0.0000E+00  0.0000E+00  0.0000E+00  1.5200E-03
112  0.0000E+00  5.2608E-04  0.0000E+00  0.0000E+00  0.0000E+00  0.0000E+00  0.0000E+00  0.0000E+00  4.7964E-04
113  0.0000E+00  3.4249E-04  0.0000E+00  8.2251E-04  0.0000E+00  0.0000E+00  0.0000E+00  0.0000E+00  0.0000E+00
114  0.0000E+00  4.8563E-04  0.0000E+00  0.0000E+00  0.0000E+00  0.0000E+00  0.0000E+00  0.0000E+00  0.0000E+00
115  0.0000E+00  1.0793E-03  9.8726E-04  0.0000E+00  0.0000E+00  0.0000E+00  0.0000E+00  0.0000E+00  0.0000E+00
116  0.0000E+00  2.4966E-03  1.6645E-03  0.0000E+00  0.0000E+00  0.0000E+00  0.0000E+00  0.0000E+00  0.0000E+00
117  0.0000E+00  1.9429E-03  0.0000E+00  0.0000E+00  0.0000E+00  0.0000E+00  0.0000E+00  0.0000E+00  0.0000E+00
118  0.0000E+00  7.0981E-03  0.0000E+00  0.0000E+00  0.0000E+00  0.0000E+00  0.0000E+00  0.0000E+00  0.0000E+00
119  0.0000E+00  1.2865E-02  0.0000E+00  0.0000E+00  0.0000E+00  0.0000E+00  0.0000E+00  0.0000E+00  0.0000E+00
120  0.0000E+00  1.8242E-02  0.0000E+00  0.0000E+00  2.8620E-02  0.0000E+00  1.4308E-02  5.5230E-03  0.0000E+00
121  0.0000E+00  2.0888E-02  0.0000E+00  0.0000E+00  0.0000E+00  0.0000E+00  0.0000E+00  0.0000E+00  0.0000E+00
122  0.0000E+00  3.4097E-02  0.0000E+00  0.0000E+00  0.0000E+00  0.0000E+00  0.0000E+00  0.0000E+00  0.0000E+00
123  0.0000E+00  3.8018E-02  0.0000E+00  0.0000E+00  0.0000E+00  0.0000E+00  0.0000E+00  0.0000E+00  0.0000E+00
124  0.0000E+00  5.5413E-02  0.0000E+00  0.0000E+00  0.0000E+00  0.0000E+00  0.0000E+00  0.0000E+00  0.0000E+00
125  0.0000E+00  8.3157E-02  0.0000E+00  0.0000E+00  0.0000E+00  0.0000E+00  0.0000E+00  0.0000E+00  0.0000E+00
126  0.0000E+00  2.9713E-05  1.8269E-04  0.0000E+00  0.0000E+00  0.0000E+00  0.0000E+00  0.0000E+00  0.0000E+00
127  0.0000E+00  2.5551E-05  0.0000E+00  0.0000E+00  0.0000E+00  0.0000E+00  0.0000E+00  0.0000E+00  0.0000E+00
128  0.0000E+00  3.9528E-05  0.0000E+00  0.0000E+00  0.0000E+00  4.5606E-04  2.0660E-05  0.0000E+00  0.0000E+00
129  0.0000E+00  8.0885E-05  7.9150E-04  0.0000E+00  0.0000E+00  0.0000E+00  0.0000E+00  0.0000E+00  0.0000E+00
130  0.0000E+00  8.7394E-05  0.0000E+00  0.0000E+00  0.0000E+00  0.0000E+00  8.0845E-04  0.0000E+00  9.7309E-04
131  0.0000E+00  5.5404E-05  1.7898E-05  3.9563E-04  0.0000E+00  0.0000E+00  0.0000E+00  0.0000E+00  0.0000E+00
132  0.0000E+00  6.7712E-05  0.0000E+00  0.0000E+00  0.0000E+00  0.0000E+00  0.0000E+00  0.0000E+00  0.0000E+00
133  0.0000E+00  1.3989E-04  0.0000E+00  0.0000E+00  0.0000E+00  0.0000E+00  0.0000E+00  0.0000E+00  0.0000E+00
134  0.0000E+00  1.8883E-04  0.0000E+00  0.0000E+00  0.0000E+00  0.0000E+00  0.0000E+00  0.0000E+00  0.0000E+00
135  0.0000E+00  3.5894E-04  5.3654E-04  0.0000E+00  0.0000E+00  0.0000E+00  0.0000E+00  0.0000E+00  1.8235E-04
136  0.0000E+00  5.5137E-04  0.0000E+00  0.0000E+00  0.0000E+00  0.0000E+00  0.0000E+00  0.0000E+00  0.0000E+00
137  0.0000E+00  4.4752E-04  0.0000E+00  0.0000E+00  1.5501E-03  2.1835E-03  0.0000E+00  0.0000E+00  0.0000E+00
138  0.0000E+00  4.1340E-04  0.0000E+00  0.0000E+00  0.0000E+00  0.0000E+00  0.0000E+00  0.0000E+00  0.0000E+00
139  0.0000E+00  6.4259E-04  0.0000E+00  0.0000E+00  0.0000E+00  0.0000E+00  0.0000E+00  0.0000E+00  0.0000E+00
140  0.0000E+00  2.0578E-03  0.0000E+00  0.0000E+00  1.4477E-03  0.0000E+00  0.0000E+00  0.0000E+00  0.0000E+00
141  0.0000E+00  2.8102E-03  0.0000E+00  0.0000E+00  0.0000E+00  0.0000E+00  0.0000E+00  0.0000E+00  0.0000E+00
142  0.0000E+00  3.0962E-03  0.0000E+00  0.0000E+00  0.0000E+00  0.0000E+00  0.0000E+00  0.0000E+00  0.0000E+00
143  0.0000E+00  7.1227E-03  0.0000E+00  0.0000E+00  0.0000E+00  0.0000E+00  0.0000E+00  0.0000E+00  0.0000E+00
144  0.0000E+00  5.2019E-02  0.0000E+00  0.0000E+00  1.8297E-01  0.0000E+00  1.9899E-01  0.0000E+00  0.0000E+00
145  0.0000E+00  4.2051E-01  0.0000E+00  0.0000E+00  0.0000E+00  0.0000E+00  2.1298E+00  7.6678E-01  0.0000E+00
146  0.0000E+00  2.5424E+00  1.2121E+00  2.3466E+00  2.6853E+00  6.0068E-01  2.5547E+00  2.6274E+00  2.4139E+00
147  1.5055E+00  3.2681E+00  3.1208E+00  3.2288E+00  2.1322E+00  4.1216E+00  4.0435E+00  2.5933E+00  3.2861E+00
148  4.8887E+00  3.5945E+00  3.9494E+00  3.0949E+00  3.6663E+00  4.0199E+00  3.4771E+00  3.7070E+00  3.4770E+00
149  7.6216E+00  5.9372E+00  5.9896E+00  6.1226E+00  7.4053E+00  6.2391E+00  4.9786E+00  5.7872E+00  6.0597E+00
150  7.2160E+00  5.9314E+00  6.1733E+00  6.0746E+00  5.2804E+00  7.1666E+00  4.9561E+00  5.8713E+00  5.8444E+00

# AV, chi2 & Mass for <> & i_chain = 1 ...  7 solutions
AV       1.3578      1.3253      1.3465      1.3338      1.3355      1.3396      1.3370      1.3453      1.3381
chi2 1.7972E+00  1.8693E+00  1.8336E+00  1.8407E+00  1.8429E+00  1.8402E+00  1.8490E+00  1.8393E+00  1.8393E+00
Mass 6.8176E-10  6.6755E-10  6.7112E-10  6.7390E-10  6.7431E-10  6.7662E-10  6.6162E-10  6.6536E-10  6.7849E-10
 -21.74                                  [v0_min (km/s) before EX0s...]
  83.03                                  [vd_min (km/s) before EX0s...]


## Synthetic spectrum (Best Model) ##l_obs f_obs f_syn wei
 3070    [Nl_obs]
 3359.00    0.25391   0.43916   -1.000
 3360.00    0.26381   0.43474   -1.000
 3361.00    0.27009   0.44362   -1.000
 3362.00    0.27660   0.46057   -1.000
 3363.00    0.29863   0.47718   -1.000
 3364.00    0.31465   0.48533   -1.000
 3365.00    0.31214   0.48370   -1.000
 3366.00    0.31480   0.47777   -1.000
 3367.00    0.31660   0.47158   -1.000
 3368.00    0.32389   0.46556   -1.000
 3369.00    0.32087   0.45810   -1.000
 3370.00    0.30678   0.44954   -1.000
 3371.00    0.30901   0.44432   -1.000
 3372.00    0.31679   0.44747   -1.000
 3373.00    0.32672   0.45914   -1.000
 3374.00    0.33913   0.47492   -1.000
 3375.00    0.35314   0.48834   -1.000
 3376.00    0.35654   0.49396   -1.000
 3377.00    0.37258   0.49106   -1.000
 3378.00    0.38238   0.48452   -1.000
 3379.00    0.37239   0.48088   -1.000
 3380.00    0.36316   0.48279   -1.000
 3381.00    0.37258   0.48792   -1.000
 3382.00    0.38568   0.49299   -1.000
 3383.00    0.38136   0.49663   -1.000
 3384.00    0.37565   0.49920   -1.000
 3385.00    0.37458   0.49965   -1.000
 3386.00    0.38575   0.49646   -1.000
 3387.00    0.39724   0.49199   -1.000
 3388.00    0.39289   0.49109   -1.000
 3389.00    0.39405   0.49484   -1.000
 3390.00    0.40248   0.49997   -1.000
 3391.00    0.40721   0.50200   -1.000
 3392.00    0.42125   0.50048   -1.000
 3393.00    0.42645   0.50029   -1.000
 3394.00    0.41232   0.50484   -1.000
 3395.00    0.42049   0.51285   -1.000
 3396.00    0.43663   0.52103   -1.000
 3397.00    0.43506   0.52700   -1.000
 3398.00    0.43154   0.52911   -1.000
 3399.00    0.43039   0.52659   -1.000
 3400.00    0.43791   0.52040   -1.000
 3401.00    0.44605   0.51105   -1.000
 3402.00    0.44016   0.50142   -1.000
 3403.00    0.42687   0.49546   -1.000
 3404.00    0.41343   0.49451   -1.000
 3405.00    0.41318   0.49576   -1.000
 3406.00    0.42232   0.49532   -1.000
 3407.00    0.42792   0.49269   -1.000
 3408.00    0.42936   0.49095   -1.000
 3409.00    0.43252   0.49274   -1.000
 3410.00    0.43205   0.49532   -1.000
 3411.00    0.42705   0.49513   -1.000
 3412.00    0.43206   0.49285   -1.000
 3413.00    0.44280   0.49198   -1.000
 3414.00    0.44690   0.49553   -1.000
 3415.00    0.45173   0.50281   -1.000
 3416.00    0.45489   0.51068   -1.000
 3417.00    0.45527   0.51746   -1.000
 3418.00    0.46264   0.52316   -1.000
 3419.00    0.46558   0.52775   -1.000
 3420.00    0.47183   0.52983   -1.000
 3421.00    0.48137   0.52697   -1.000
 3422.00    0.47211   0.51948   -1.000
 3423.00    0.45840   0.51202   -1.000
 3424.00    0.46010   0.50922   -1.000
 3425.00    0.46701   0.51155   -1.000
 3426.00    0.46616   0.51727   -1.000
 3427.00    0.47186   0.52551   -1.000
 3428.00    0.48642   0.53505   -1.000
 3429.00    0.49627   0.54182   -1.000
 3430.00    0.49966   0.54065   -1.000
 3431.00    0.48682   0.53214   -1.000
 3432.00    0.48074   0.52359   -1.000
 3433.00    0.48232   0.52235   -1.000
 3434.00    0.47982   0.52893   -1.000
 3435.00    0.49002   0.53645   -1.000
 3436.00    0.49613   0.53771   -1.000
 3437.00    0.48797   0.53167   -1.000
 3438.00    0.48098   0.52134   -1.000
 3439.00    0.47099   0.50940   -1.000
 3440.00    0.46555   0.49755   -1.000
 3441.00    0.46629   0.48839  175.943
 3442.00    0.45566   0.48477   -1.000
 3443.00    0.45418   0.48731   -1.000
 3444.00    0.46238   0.49444   -1.000
 3445.00    0.47328   0.50504   -1.000
 3446.00    0.48511   0.51828   -1.000
 3447.00    0.49394   0.53169   -1.000
 3448.00    0.49958   0.54099   -1.000
 3449.00    0.50520   0.54081   -1.000
 3450.00    0.51184   0.53032   -1.000
 3451.00    0.50736   0.51654   -1.000
 3452.00    0.50805   0.50777   -1.000
 3453.00    0.50089   0.50686  872.556
 3454.00    0.48932   0.51118   -1.000
 3455.00    0.50630   0.51610  261.918
 3456.00    0.52148   0.51829  153.406
 3457.00    0.52251   0.51665  153.812
 3458.00    0.52236   0.51203   -1.000
 3459.00    0.51656   0.50597   -1.000
 3460.00    0.51786   0.50114   -1.000
 3461.00    0.51349   0.50146   -1.000
 3462.00    0.50696   0.50763  872.556
 3463.00    0.51239   0.51433  872.556
 3464.00    0.52870   0.51668   -1.000
 3465.00    0.54270   0.51645   -1.000
 3466.00    0.53407   0.51857   -1.000
 3467.00    0.52239   0.52509  872.556
 3468.00    0.53227   0.53394  872.556
 3469.00    0.54009   0.54101  872.556
 3470.00    0.54350   0.54274  872.556
 3471.00    0.53961   0.53860  257.420
 3472.00    0.53584   0.52976  156.726
 3473.00    0.53473   0.51839  157.397
 3474.00    0.52362   0.50833   -1.000
 3475.00    0.50899   0.50328   -1.000
 3476.00    0.50329   0.50488  872.556
 3477.00    0.51915   0.51142   -1.000
 3478.00    0.53671   0.51956   -1.000
 3479.00    0.54891   0.52753   -1.000
 3480.00    0.56340   0.53356   -1.000
 3481.00    0.56786   0.53515   -1.000
 3482.00    0.55772   0.53262   -1.000
 3483.00    0.55053   0.53003   -1.000
 3484.00    0.55059   0.53194   -1.000
 3485.00    0.55402   0.53849   -1.000
 3486.00    0.55726   0.54458   -1.000
 3487.00    0.55688   0.54549   -1.000
 3488.00    0.55328   0.54028   -1.000
 3489.00    0.53758   0.53193   -1.000
 3490.00    0.53219   0.52639   -1.000
 3491.00    0.53978   0.52727   -1.000
 3492.00    0.55044   0.53123   -1.000
 3493.00    0.54944   0.53241   -1.000
 3494.00    0.53882   0.52856   -1.000
 3495.00    0.52889   0.52200   -1.000
 3496.00    0.52012   0.51804   -1.000
 3497.00    0.52648   0.51946   -1.000
 3498.00    0.54183   0.52422   -1.000
 3499.00    0.54998   0.52792   -1.000
 3500.00    0.55029   0.52840   -1.000
 3501.00    0.55727   0.52827   -1.000
 3502.00    0.55858   0.52979   -1.000
 3503.00    0.55591   0.53115   -1.000
 3504.00    0.55624   0.52973   -1.000
 3505.00    0.55094   0.52576   -1.000
 3506.00    0.55104   0.52173   -1.000
 3507.00    0.55914   0.51961   -1.000
 3508.00    0.56078   0.51962   -1.000
 3509.00    0.55291   0.52032   -1.000
 3510.00    0.55112   0.51993   -1.000
 3511.00    0.54227   0.51764   -1.000
 3512.00    0.53113   0.51423   -1.000
 3513.00    0.53055   0.51241   -1.000
 3514.00    0.53642   0.51526   -1.000
 3515.00    0.54595   0.52422   -1.000
 3516.00    0.55450   0.53617   -1.000
 3517.00    0.55662   0.54453   -1.000
 3518.00    0.55685   0.54443   -1.000
 3519.00    0.55730   0.53724   -1.000
 3520.00    0.53462   0.52841  237.653
 3521.00    0.52343   0.52178  155.508
 3522.00    0.53081   0.51707  157.100
 3523.00    0.53216   0.51223   -1.000
 3524.00    0.52728   0.50718   -1.000
 3525.00    0.51157   0.50547   -1.000
 3526.00    0.50393   0.50977  872.556
 3527.00    0.52017   0.51912   -1.000
 3528.00    0.54482   0.53060   -1.000
 3529.00    0.55179   0.54092   -1.000
 3530.00    0.54732   0.54773  872.556
 3531.00    0.55053   0.54971  872.556
 3532.00    0.55636   0.54611   -1.000
 3533.00    0.55477   0.53921   -1.000
 3534.00    0.55977   0.53426   -1.000
 3535.00    0.56292   0.53572   -1.000
 3536.00    0.55603   0.54314   -1.000
 3537.00    0.55747   0.55213   -1.000
 3538.00    0.56954   0.55899   -1.000
 3539.00    0.57066   0.56255   -1.000
 3540.00    0.56156   0.56325  872.556
 3541.00    0.55667   0.56281   -1.000
 3542.00    0.56368   0.56364  872.556
 3543.00    0.56746   0.56631  872.556
 3544.00    0.56422   0.56852   -1.000
 3545.00    0.57114   0.56843  872.556
 3546.00    0.56962   0.56672  872.556
 3547.00    0.55477   0.56513   -1.000
 3548.00    0.55421   0.56486   -1.000
 3549.00    0.56230   0.56627   -1.000
 3550.00    0.55280   0.56858   -1.000
 3551.00    0.55445   0.56925   -1.000
 3552.00    0.56266   0.56610  872.556
 3553.00    0.54553   0.56062   -1.000
 3554.00    0.53964   0.55702   -1.000
 3555.00    0.54420   0.55787   -1.000
 3556.00    0.54166   0.56261   -1.000
 3557.00    0.53928   0.56823   -1.000
 3558.00    0.54684   0.57157   -1.000
 3559.00    0.54879   0.57222   -1.000
 3560.00    0.54183   0.57192   -1.000
 3561.00    0.54815   0.57116   -1.000
 3562.00    0.55449   0.56789  157.798
 3563.00    0.55311   0.56014  158.871
 3564.00    0.54495   0.54892  157.623
 3565.00    0.52953   0.53819  160.801
 3566.00    0.52046   0.53167  164.689
 3567.00    0.51946   0.52975  162.285
 3568.00    0.52259   0.52904  155.704
 3569.00    0.52653   0.52550  366.404
 3570.00    0.51905   0.51872  872.556
 3571.00    0.51113   0.51259  872.556
 3572.00    0.51085   0.51039  872.556
 3573.00    0.51238   0.51204  872.556
 3574.00    0.51823   0.51640  872.556
 3575.00    0.52710   0.52237  229.762
 3576.00    0.53640   0.52847  167.097
 3577.00    0.53776   0.53294  177.752
 3578.00    0.53888   0.53373  181.780
 3579.00    0.53880   0.52996  182.639
 3580.00    0.52189   0.52329  185.962
 3581.00    0.50766   0.51690  191.650
 3582.00    0.51424   0.51347  195.577
 3583.00    0.51514   0.51182  189.680
 3584.00    0.50813   0.50721  179.668
 3585.00    0.49906   0.49798  170.688
 3586.00    0.49071   0.48913  157.535
 3587.00    0.49122   0.48731  377.465
 3588.00    0.50299   0.49472   -1.000
 3589.00    0.50596   0.50784  872.556
 3590.00    0.51424   0.52074   -1.000
 3591.00    0.53070   0.52938  872.556
 3592.00    0.54573   0.53379   -1.000
 3593.00    0.55238   0.53683   -1.000
 3594.00    0.55449   0.54141   -1.000
 3595.00    0.55769   0.54786   -1.000
 3596.00    0.56122   0.55430   -1.000
 3597.00    0.56401   0.55906   -1.000
 3598.00    0.57088   0.56185   -1.000
 3599.00    0.57773   0.56233   -1.000
 3600.00    0.56840   0.55905   -1.000
 3601.00    0.55978   0.55227   -1.000
 3602.00    0.55256   0.54502   -1.000
 3603.00    0.55025   0.54093   -1.000
 3604.00    0.54313   0.54092  872.556
 3605.00    0.53730   0.54223   -1.000
 3606.00    0.53755   0.54187   -1.000
 3607.00    0.53918   0.53967  872.556
 3608.00    0.53775   0.53725  872.556
 3609.00    0.53118   0.53587   -1.000
 3610.00    0.53114   0.53598   -1.000
 3611.00    0.53348   0.53792  872.556
 3612.00    0.53998   0.54149  872.556
 3613.00    0.54666   0.54651  872.556
 3614.00    0.55312   0.55338  872.556
 3615.00    0.56862   0.55983  208.347
 3616.00    0.56346   0.56124  401.607
 3617.00    0.55336   0.55579  872.556
 3618.00    0.53795   0.54740   -1.000
 3619.00    0.52411   0.54308   -1.000
 3620.00    0.53133   0.54652   -1.000
 3621.00    0.55109   0.55511  872.556
 3622.00    0.56719   0.56378   -1.000
 3623.00    0.56512   0.57042   -1.000
 3624.00    0.56150   0.57726   -1.000
 3625.00    0.56652   0.58677   -1.000
 3626.00    0.57842   0.59715   -1.000
 3627.00    0.59559   0.60207   -1.000
 3628.00    0.59732   0.59621  872.556
 3629.00    0.58411   0.58055   -1.000
 3630.00    0.56270   0.56277  872.556
 3631.00    0.53951   0.55184   -1.000
 3632.00    0.54189   0.55189   -1.000
 3633.00    0.55147   0.55943   -1.000
 3634.00    0.54893   0.56693   -1.000
 3635.00    0.55395   0.57027   -1.000
 3636.00    0.56831   0.57212   -1.000
 3637.00    0.57274   0.57641   -1.000
 3638.00    0.58422   0.58244  872.556
 3639.00    0.58962   0.58645  872.556
 3640.00    0.58380   0.58595  872.556
 3641.00    0.57390   0.58092   -1.000
 3642.00    0.56375   0.57335   -1.000
 3643.00    0.55799   0.56607   -1.000
 3644.00    0.56251   0.56086  872.556
 3645.00    0.55923   0.55774  872.556
 3646.00    0.56070   0.55623   -1.000
 3647.00    0.56392   0.55610   -1.000
 3648.00    0.55140   0.55689   -1.000
 3649.00    0.55906   0.55840  872.556
 3650.00    0.56327   0.56133  872.556
 3651.00    0.56399   0.56675  872.556
 3652.00    0.57638   0.57447  872.556
 3653.00    0.58785   0.58315   -1.000
 3654.00    0.58845   0.59160   -1.000
 3655.00    0.59410   0.59889   -1.000
 3656.00    0.58324   0.60381   -1.000
 3657.00    0.58362   0.60570   -1.000
 3658.00    0.59022   0.60501   -1.000
 3659.00    0.58671   0.60246   -1.000
 3660.00    0.59099   0.59854   -1.000
 3661.00    0.59120   0.59396   -1.000
 3662.00    0.58435   0.59028   -1.000
 3663.00    0.58439   0.58903   -1.000
 3664.00    0.58214   0.59017   -1.000
 3665.00    0.59481   0.59202  872.556
 3666.00    0.60387   0.59266   -1.000
 3667.00    0.59644   0.59125   -1.000
 3668.00    0.58353   0.58859   -1.000
 3669.00    0.58072   0.58663   -1.000
 3670.00    0.58372   0.58716   -1.000
 3671.00    0.58198   0.59059   -1.000
 3672.00    0.59109   0.59500   -1.000
 3673.00    0.59189   0.59726   -1.000
 3674.00    0.58762   0.59558   -1.000
 3675.00    0.58843   0.59009  872.556
 3676.00    0.58610   0.58210  872.556
 3677.00    0.58444   0.57417   -1.000
 3678.00    0.57292   0.56962  872.556
 3679.00    0.56546   0.57006   -1.000
 3680.00    0.57173   0.57379  872.556
 3681.00    0.58118   0.57755  872.556
 3682.00    0.58424   0.57911   -1.000
 3683.00    0.58497   0.57789   -1.000
 3684.00    0.58070   0.57429   -1.000
 3685.00    0.56622   0.56988   -1.000
 3686.00    0.55697   0.56848   -1.000
 3687.00    0.56193   0.57430   -1.000
 3688.00    0.56847   0.58672   -1.000
 3689.00    0.58426   0.59905   -1.000
 3690.00    0.59227   0.60534   -1.000
 3691.00    0.59766   0.60655   -1.000
 3692.00    0.60333   0.60765   -1.000
 3693.00    0.59851   0.61074   -1.000
 3694.00    0.60436   0.61320   -1.000
 3695.00    0.59814   0.61158   -1.000
 3696.00    0.59028   0.60719   -1.000
 3697.00    0.59388   0.60720   -1.000
 3698.00    0.59148   0.61733   -1.000
 3699.00    0.61995   0.63391   -1.000
 3700.00    0.63560   0.64426   -1.000
 3701.00    0.63991   0.63675   -1.000
 3702.00    0.61370   0.61137  872.556
 3703.00    0.57707   0.58044   -1.000
 3704.00    0.56585   0.55912   -1.000
 3705.00    0.55853   0.55548  872.556
 3706.00    0.57022   0.56684   -1.000
 3707.00    0.58972   0.58290   -1.000
 3708.00    0.59296   0.59193   -1.000
 3709.00    0.59801   0.58827   -1.000
 3710.00    0.58253   0.57630   -1.000
 3711.00    0.56702   0.56727  872.556
 3712.00    0.58341   0.57170   -1.000
 3713.00    0.61332   0.59267   -1.000
 3714.00    0.64085   0.62338   -1.000
 3715.00    0.65993   0.65182   -1.000
 3716.00    0.66479   0.66844  872.556
 3717.00    0.65875   0.66752  188.261
 3718.00    0.62913   0.64551   -1.000
 3719.00    0.60421   0.60485  872.556
 3720.00    0.55855   0.55963  872.556
 3721.00    0.52030   0.52961   -1.000
 3722.00    0.53060   0.52795  872.556
 3723.00    0.56287   0.55490   -1.000
 3724.00    0.60216   0.59743   -1.000
 3725.00    0.63614   0.63640  872.556
 3726.00    0.65507   0.66110   -1.000
 3727.00    0.65688   0.67373   -1.000
 3728.00    0.66010   0.67979   -1.000
 3729.00    0.66865   0.67902  181.949
 3730.00    0.65414   0.66473  166.406
 3731.00    0.62441   0.63087  175.239
 3732.00    0.59010   0.58198  169.039
 3733.00    0.53669   0.53326  154.269
 3734.00    0.49575   0.50210   -1.000
 3735.00    0.49303   0.49988   -1.000
 3736.00    0.52021   0.52690   -1.000
 3737.00    0.57152   0.57248  872.556
 3738.00    0.61979   0.62322  872.556
 3739.00    0.64919   0.66725   -1.000
 3740.00    0.67649   0.69552   -1.000
 3741.00    0.68797   0.70482   -1.000
 3742.00    0.67818   0.69924   -1.000
 3743.00    0.66998   0.68500  182.095
 3744.00    0.63958   0.66565   -1.000
 3745.00    0.62337   0.64109  165.312
 3746.00    0.59748   0.61015   -1.000
 3747.00    0.56568   0.57359   -1.000
 3748.00    0.53462   0.53684  872.556
 3749.00    0.50301   0.51159   -1.000
 3750.00    0.51076   0.51122   -1.000
 3751.00    0.55805   0.53995   -1.000
 3752.00    0.61385   0.58803   -1.000
 3753.00    0.65620   0.63899   -1.000
 3754.00    0.69207   0.67935   -1.000
 3755.00    0.71460   0.70236   -1.000
 3756.00    0.71757   0.70675   -1.000
 3757.00    0.69407   0.69689  872.556
 3758.00    0.67753   0.68279   -1.000
 3759.00    0.67895   0.67443   -1.000
 3760.00    0.68970   0.67594   -1.000
 3761.00    0.70713   0.68487   -1.000
 3762.00    0.71844   0.69462   -1.000
 3763.00    0.71347   0.69866   -1.000
 3764.00    0.71075   0.69401   -1.000
 3765.00    0.70195   0.68059   -1.000
 3766.00    0.67578   0.65839   -1.000
 3767.00    0.65146   0.62705   -1.000
 3768.00    0.62301   0.58965   -1.000
 3769.00    0.59303   0.55558   -1.000
 3770.00    0.56083   0.53830   -1.000
 3771.00    0.56061   0.54719   -1.000
 3772.00    0.60205   0.57923   -1.000
 3773.00    0.65270   0.62008   -1.000
 3774.00    0.68009   0.65606  118.114
 3775.00    0.70201   0.68328   99.995
 3776.00    0.71662   0.70622   97.532
 3777.00    0.74243   0.72972   96.684
 3778.00    0.75836   0.75396   96.092
 3779.00    0.77457   0.77586   96.073
 3780.00    0.79405   0.79218   98.048
 3781.00    0.81578   0.80091  102.956
 3782.00    0.80239   0.80218  110.490
 3783.00    0.79691   0.79837  116.363
 3784.00    0.80164   0.79121  118.934
 3785.00    0.79390   0.78059  119.094
 3786.00    0.76487   0.76689  117.174
 3787.00    0.76237   0.75341  115.869
 3788.00    0.75315   0.74415  117.339
 3789.00    0.75075   0.73965  121.520
 3790.00    0.74426   0.73601  125.760
 3791.00    0.73873   0.72798  129.638
 3792.00    0.72037   0.71148  136.162
 3793.00    0.70190   0.68412  143.710
 3794.00    0.66922   0.64598   -1.000
 3795.00    0.62909   0.60083   -1.000
 3796.00    0.58006   0.55637  126.073
 3797.00    0.54185   0.52446  115.827
 3798.00    0.52240   0.51879  110.347
 3799.00    0.55938   0.54607  107.683
 3800.00    0.61982   0.59789  106.907
 3801.00    0.67063   0.65579  108.350
 3802.00    0.71060   0.70385  112.278
 3803.00    0.74506   0.73627  114.677
 3804.00    0.76019   0.75462  112.126
 3805.00    0.76661   0.76381  107.852
 3806.00    0.76706   0.77020  106.380
 3807.00    0.77589   0.77976  108.192
 3808.00    0.79582   0.79413  113.753
 3809.00    0.80914   0.80943  120.785
 3810.00    0.82234   0.81813  128.071
 3811.00    0.81844   0.81383  134.074
 3812.00    0.81181   0.79741  132.414
 3813.00    0.79693   0.77774  127.536
 3814.00    0.78113   0.76541  129.137
 3815.00    0.77684   0.76525  137.736
 3816.00    0.77982   0.77374  145.148
 3817.00    0.80039   0.78153  142.588
 3818.00    0.81347   0.78050   -1.000
 3819.00    0.78182   0.77064  137.122
 3820.00    0.76791   0.76019  148.339
 3821.00    0.77081   0.75664   17.359
 3822.00    0.77837   0.75728   16.215
 3823.00    0.77377   0.75243   16.109
 3824.00    0.75162   0.73813   15.855
 3825.00    0.72893   0.72044   15.594
 3826.00    0.71916   0.70614   15.758
 3827.00    0.71503   0.69557   16.447
 3828.00    0.70714   0.68536   17.736
 3829.00    0.68643   0.67189   18.340
 3830.00    0.66895   0.65145   18.033
 3831.00    0.65235   0.62030   17.320
 3832.00    0.61498   0.57810   16.921
 3833.00    0.57236   0.53212   17.240
 3834.00    0.53157   0.49602   17.658
 3835.00    0.51653   0.48174   17.385
 3836.00    0.53693   0.49257   16.422
 3837.00    0.56509   0.52317   -1.000
 3838.00    0.60354   0.56346   -1.000
 3839.00    0.63667   0.60490   -1.000
 3840.00    0.66261   0.64451  123.463
 3841.00    0.70047   0.68246  123.349
 3842.00    0.73958   0.71819  123.283
 3843.00    0.76927   0.74941  123.504
 3844.00    0.78343   0.77388  126.393
 3845.00    0.78776   0.79144  131.314
 3846.00    0.80521   0.80374  133.514
 3847.00    0.81647   0.81130  130.615
 3848.00    0.81772   0.81387  127.135
 3849.00    0.81423   0.81380  127.835
 3850.00    0.81206   0.81665  131.042
 3851.00    0.81921   0.82570  134.918
 3852.00    0.82889   0.83754  136.984
 3853.00    0.83785   0.84515  141.324
 3854.00    0.84477   0.84443   15.915
 3855.00    0.83828   0.83694   15.968
 3856.00    0.82882   0.82747   15.663
 3857.00    0.82280   0.81979   96.556
 3858.00    0.81353   0.81567  126.467
 3859.00    0.79756   0.81669   -1.000
 3860.00    0.81381   0.82356  121.137
 3861.00    0.83613   0.83352  123.529
 3862.00    0.86212   0.84174  125.410
 3863.00    0.87350   0.84558  127.857
 3864.00    0.87309   0.84606  132.926
 3865.00    0.85880   0.84621  139.818
 3866.00    0.86223   0.84874  149.063
 3867.00    0.86770   0.85348   15.922
 3868.00    0.86349   0.85617  106.027
 3869.00    0.83797   0.85171   -1.000
 3870.00    0.82005   0.83864   -1.000
 3871.00    0.80717   0.82079  117.471
 3872.00    0.78561   0.80558   -1.000
 3873.00    0.78679   0.79936  131.182
 3874.00    0.81456   0.80169  140.095
 3875.00    0.83663   0.80442   -1.000
 3876.00    0.82249   0.79940  141.228
 3877.00    0.78806   0.78684  144.754
 3878.00    0.76421   0.77469  141.128
 3879.00    0.77014   0.76897  128.704
 3880.00    0.75841   0.76688  120.958
 3881.00    0.74085   0.76105  123.137
 3882.00    0.73101   0.74754  129.795
 3883.00    0.72655   0.72631  131.509
 3884.00    0.71404   0.69607  131.054
 3885.00    0.68636   0.65462   -1.000
 3886.00    0.64277   0.60465   -1.000
 3887.00    0.59109   0.55721  106.194
 3888.00    0.55879   0.52806  102.451
 3889.00    0.54650   0.52900  102.872
 3890.00    0.59045   0.56028  104.651
 3891.00    0.65116   0.60934   -1.000
 3892.00    0.69515   0.65788   -1.000
 3893.00    0.72046   0.69416   98.790
 3894.00    0.73092   0.71819  100.638
 3895.00    0.74550   0.73630  102.090
 3896.00    0.76744   0.75304  100.597
 3897.00    0.78892   0.76785   99.673
 3898.00    0.79476   0.77823  100.659
 3899.00    0.79708   0.78538  105.070
 3900.00    0.80015   0.79365  107.590
 3901.00    0.82206   0.80423  110.884
 3902.00    0.83300   0.81340  109.894
 3903.00    0.84319   0.81772  103.337
 3904.00    0.83286   0.81817   96.328
 3905.00    0.82170   0.81960   94.107
 3906.00    0.81742   0.82780   93.285
 3907.00    0.84023   0.84488   92.390
 3908.00    0.86476   0.86663   91.850
 3909.00    0.87328   0.88505   92.979
 3910.00    0.88702   0.89459   94.941
 3911.00    0.89144   0.89456   97.192
 3912.00    0.88866   0.88736   98.398
 3913.00    0.88329   0.87737   99.721
 3914.00    0.87420   0.87005  102.704
 3915.00    0.88472   0.86820  107.321
 3916.00    0.87392   0.86936  112.479
 3917.00    0.85506   0.86900   -1.000
 3918.00    0.86704   0.86546  113.551
 3919.00    0.87255   0.86062  111.435
 3920.00    0.84623   0.85707  112.442
 3921.00    0.84042   0.85568   -1.000
 3922.00    0.85418   0.85577  129.953
 3923.00    0.85795   0.85597  133.737
 3924.00    0.85151   0.85333   16.874
 3925.00    0.84056   0.84363   19.791
 3926.00    0.82986   0.82404   23.158
 3927.00    0.77737   0.79462   27.418
 3928.00    0.70275   0.75656   32.037
 3929.00    0.63408   0.70922   34.880
 3930.00    0.58732   0.64968   33.284
 3931.00    0.55528   0.57888   28.804
 3932.00    0.50044   0.51078   23.789
 3933.00    0.44674   0.47063   19.539
 3934.00    0.44723   0.47766   16.840
 3935.00    0.51658   0.52860  145.606
 3936.00    0.61319   0.60162  135.200
 3937.00    0.68469   0.67491  130.259
 3938.00    0.73852   0.73654  129.171
 3939.00    0.78064   0.78258  128.936
 3940.00    0.82187   0.81325  122.116
 3941.00    0.82444   0.83083  110.923
 3942.00    0.82852   0.83906  104.730
 3943.00    0.82794   0.84319  103.708
 3944.00    0.83661   0.84764  102.855
 3945.00    0.85264   0.85404   99.006
 3946.00    0.86090   0.86062   95.902
 3947.00    0.86521   0.86391   96.463
 3948.00    0.86741   0.86237   97.797
 3949.00    0.87530   0.85804   95.959
 3950.00    0.88035   0.85396   93.665
 3951.00    0.88055   0.85212   94.868
 3952.00    0.86242   0.85333   98.350
 3953.00    0.86216   0.85624   99.759
 3954.00    0.87716   0.85692   98.083
 3955.00    0.87418   0.85221  100.815
 3956.00    0.85448   0.84339  111.965
 3957.00    0.83967   0.83474  126.515
 3958.00    0.84408   0.82754  139.611
 3959.00    0.84196   0.81728  104.509
 3960.00    0.81419   0.79868   15.962
 3961.00    0.77688   0.77115   18.794
 3962.00    0.71901   0.73753   23.211
 3963.00    0.68128   0.69827   28.264
 3964.00    0.63806   0.64853   30.886
 3965.00    0.58019   0.58247   28.392
 3966.00    0.50654   0.50164   23.355
 3967.00    0.42542   0.42057   19.205
 3968.00    0.36420   0.36316   17.120
 3969.00    0.34647   0.34915  139.151
 3970.00    0.38915   0.38194  123.048
 3971.00    0.47512   0.44838   -1.000
 3972.00    0.56797   0.52753   -1.000
 3973.00    0.64632   0.60258   -1.000
 3974.00    0.70037   0.66618   -1.000
 3975.00    0.74738   0.71757   86.794
 3976.00    0.78507   0.75813   85.951
 3977.00    0.80868   0.79002   86.666
 3978.00    0.83672   0.81499   88.223
 3979.00    0.86528   0.83319   87.438
 3980.00    0.87205   0.84414   85.586
 3981.00    0.88514   0.84995   83.920
 3982.00    0.88956   0.85564   82.550
 3983.00    0.89587   0.86525   81.014
 3984.00    0.90403   0.87831   80.337
 3985.00    0.92370   0.89071   80.602
 3986.00    0.92600   0.89995   79.958
 3987.00    0.92948   0.90729   78.051
 3988.00    0.93744   0.91419   76.372
 3989.00    0.94365   0.92053   77.448
 3990.00    0.95865   0.92682   79.349
 3991.00    0.96582   0.93409   81.152
 3992.00    0.96354   0.94166   82.629
 3993.00    0.97444   0.94644   83.077
 3994.00    0.96224   0.94493   80.952
 3995.00    0.94590   0.93681   77.249
 3996.00    0.94291   0.92677   74.778
 3997.00    0.93494   0.92145   73.629
 3998.00    0.93866   0.92409   72.803
 3999.00    0.95636   0.93221   74.625
 4000.00    0.96812   0.94066   79.748
 4001.00    0.97233   0.94559   83.396
 4002.00    0.97979   0.94569   82.196
 4003.00    0.97495   0.94152   77.452
 4004.00    0.96309   0.93554   74.624
 4005.00    0.95027   0.93245   73.712
 4006.00    0.93873   0.93648   72.973
 4007.00    0.95672   0.94710   72.821
 4008.00    1.00426   0.95901   73.357
 4009.00    0.99523   0.96709   73.655
 4010.00    0.99614   0.97004   73.023
 4011.00    0.99450   0.96959   72.138
 4012.00    0.99676   0.96844   72.842
 4013.00    0.98304   0.96921   73.622
 4014.00    0.98685   0.97303   73.144
 4015.00    0.99871   0.97904   72.123
 4016.00    1.00554   0.98560   72.432
 4017.00    1.00428   0.99171   73.459
 4018.00    1.00960   0.99691   73.876
 4019.00    1.01024   1.00018   74.374
 4020.00    1.01017   0.99975   74.677
 4021.00    1.00351   0.99468   72.653
 4022.00    0.99726   0.98607   70.158
 4023.00    0.99259   0.97692   69.006
 4024.00    0.98622   0.97145   69.946
 4025.00    0.98253   0.97297   73.139
 4026.00    1.00000   0.98023   78.026
 4027.00    1.01028   0.98696   80.978
 4028.00    1.00554   0.98734   81.637
 4029.00    0.99036   0.98065   80.334
 4030.00    0.97021   0.97085   77.476
 4031.00    0.96292   0.96333   73.594
 4032.00    0.95822   0.96154   70.092
 4033.00    0.95876   0.96604   67.931
 4034.00    0.96719   0.97597   67.949
 4035.00    0.98455   0.98993   69.476
 4036.00    1.00906   1.00529   71.032
 4037.00    1.01489   1.01783   71.724
 4038.00    1.02041   1.02379   72.459
 4039.00    1.02147   1.02304   76.523
 4040.00    1.01589   1.01863   83.987
 4041.00    1.01583   1.01274   89.059
 4042.00    1.00541   1.00412   84.380
 4043.00    0.98578   0.99046   76.467
 4044.00    0.96326   0.97375   72.240
 4045.00    0.95398   0.96194   70.407
 4046.00    0.95328   0.96305   69.806
 4047.00    0.97132   0.97682   70.528
 4048.00    0.99938   0.99453   72.507
 4049.00    1.01781   1.00757   74.280
 4050.00    1.01682   1.01330   75.333
 4051.00    1.01966   1.01297   75.905
 4052.00    1.01863   1.00874   76.458
 4053.00    1.00841   1.00348   77.015
 4054.00    1.00461   1.00011   75.762
 4055.00    1.00267   0.99973   73.137
 4056.00    0.99696   1.00169   72.125
 4057.00    0.99479   1.00557   74.037
 4058.00    1.00246   1.01089   79.594
 4059.00    1.02006   1.01439   84.063
 4060.00    1.02792   1.01121   82.100
 4061.00    1.01031   0.99998   78.283
 4062.00    0.99026   0.98431   76.393
 4063.00    0.96526   0.96964   74.249
 4064.00    0.95542   0.96062   72.067
 4065.00    0.97911   0.95949   71.777
 4066.00    0.98522   0.96423   74.815
 4067.00    0.98827   0.96988   77.625
 4068.00    1.00066   0.97235   76.562
 4069.00    1.00090   0.96952   74.064
 4070.00    0.99171   0.96163   74.374
 4071.00    0.98228   0.95293   78.562
 4072.00    0.98525   0.94910   84.694
 4073.00    0.99090   0.95068   86.197
 4074.00    0.98555   0.95132   82.639
 4075.00    0.96658   0.94440   76.857
 4076.00    0.95425   0.93128   72.072
 4077.00    0.94318   0.92133   70.541
 4078.00    0.93879   0.92348   72.045
 4079.00    0.96345   0.93769   74.332
 4080.00    0.98991   0.95507   75.029
 4081.00    1.00377   0.96615   73.584
 4082.00    1.00535   0.96752   70.983
 4083.00    0.98407   0.96190   68.318
 4084.00    0.97230   0.95463   66.580
 4085.00    0.96816   0.95064   67.148
 4086.00    0.96607   0.95204   68.554
 4087.00    0.97912   0.95725   69.742
 4088.00    0.99068   0.96221   70.381
 4089.00    0.99288   0.96328   70.650
 4090.00    0.98065   0.95946   72.351
 4091.00    0.95662   0.95153   75.595
 4092.00    0.95209   0.93979   77.728
 4093.00    0.95134   0.92429   78.367
 4094.00    0.93478   0.90530   80.240
 4095.00    0.91710   0.88242   85.364
 4096.00    0.89268   0.85442   93.058
 4097.00    0.87048   0.81921   -1.000
 4098.00    0.83275   0.77449   -1.000
 4099.00    0.77442   0.72083   -1.000
 4100.00    0.71445   0.66762   79.958
 4101.00    0.65644   0.63373   76.080
 4102.00    0.64386   0.63637   74.191
 4103.00    0.70557   0.67647   74.094
 4104.00    0.78022   0.73668   74.986
 4105.00    0.82939   0.79460   76.412
 4106.00    0.86438   0.83725   77.103
 4107.00    0.88416   0.86418   75.916
 4108.00    0.89389   0.88093   74.256
 4109.00    0.90702   0.89326   73.019
 4110.00    0.92058   0.90527   71.984
 4111.00    0.93949   0.91913   71.514
 4112.00    0.95701   0.93494   72.145
 4113.00    0.95972   0.95119   73.917
 4114.00    0.96947   0.96556   76.115
 4115.00    0.99149   0.97519   76.558
 4116.00    0.99237   0.97802   75.580
 4117.00    0.97586   0.97479   74.988
 4118.00    0.96903   0.96923   74.896
 4119.00    0.97242   0.96575   73.945
 4120.00    0.98351   0.96626   72.846
 4121.00    0.99161   0.96960   72.900
 4122.00    0.99071   0.97439   74.056
 4123.00    0.98982   0.98074   75.463
 4124.00    0.99771   0.98793   76.004
 4125.00    1.01140   0.99286   76.510
 4126.00    1.01363   0.99273   77.820
 4127.00    1.00877   0.98839   80.337
 4128.00    0.99577   0.98337   82.352
 4129.00    0.99356   0.97981   81.811
 4130.00    0.98847   0.97699   78.680
 4131.00    0.98085   0.97448   74.985
 4132.00    0.98104   0.97483   72.867
 4133.00    0.97474   0.98120   71.732
 4134.00    0.98680   0.99313   70.806
 4135.00    1.01619   1.00713   70.954
 4136.00    1.02612   1.02022   72.994
 4137.00    1.02333   1.03128   77.465
 4138.00    1.03802   1.03956   83.569
 4139.00    1.04491   1.04295   86.070
 4140.00    1.03243   1.03879   82.194
 4141.00    1.01708   1.02680   77.644
 4142.00    0.99351   1.01139   -1.000
 4143.00    0.97455   1.00041   -1.000
 4144.00    0.98016   0.99985   -1.000
 4145.00    1.00978   1.00865   78.670
 4146.00    1.01750   1.01963   79.228
 4147.00    1.01377   1.02628   78.636
 4148.00    1.01420   1.02790   78.483
 4149.00    1.00835   1.02774   -1.000
 4150.00    1.03658   1.02812   79.877
 4151.00    1.20494   1.02821   -1.000
 4152.00    1.24258   1.02626   -1.000
 4153.00    0.88674   1.02260   -1.000
 4154.00    0.78850   1.01966   -1.000
 4155.00    1.02166   1.01993   75.881
 4156.00    1.05506   1.02410   74.880
 4157.00    1.01590   1.03095   72.905
 4158.00    1.02891   1.03791   72.463
 4159.00    1.03465   1.04235   73.132
 4160.00    1.03718   1.04352   74.338
 4161.00    1.04651   1.04316   75.595
 4162.00    1.04483   1.04403   77.183
 4163.00    1.03640   1.04739   77.877
 4164.00    1.03475   1.05194   -1.000
 4165.00    1.03855   1.05475   76.229
 4166.00    1.03898   1.05411   78.070
 4167.00    1.03287   1.05114   -1.000
 4168.00    1.02889   1.04704   -1.000
 4169.00    1.02528   1.03997   -1.000
 4170.00    1.02870   1.02689   82.646
 4171.00    1.01649   1.00903   80.454
 4172.00    0.98485   0.99369   80.619
 4173.00    0.97395   0.98866   -1.000
 4174.00    0.98639   0.99524   80.249
 4175.00    1.00132   1.00636   79.094
 4176.00    1.00523   1.01309   78.577
 4177.00    0.99608   1.01375   -1.000
 4178.00    0.99942   1.01399   -1.000
 4179.00    1.02026   1.01873   75.793
 4180.00    1.03009   1.02619   74.869
 4181.00    1.02397   1.03162   75.706
 4182.00    1.01612   1.03417   -1.000
 4183.00    1.01258   1.03594   -1.000
 4184.00    1.01747   1.03726   -1.000
 4185.00    1.02066   1.03637   77.072
 4186.00    1.01216   1.03278   -1.000
 4187.00    1.00756   1.02921   -1.000
 4188.00    1.00977   1.02854   73.777
 4189.00    1.01825   1.03028   73.726
 4190.00    1.02221   1.03225   76.491
 4191.00    1.02295   1.03412   80.169
 4192.00    1.03296   1.03693   82.409
 4193.00    1.03494   1.03966   83.443
 4194.00    1.03164   1.03849   83.252
 4195.00    1.02699   1.03077   82.172
 4196.00    1.01687   1.01814   81.168
 4197.00    1.00233   1.00484   80.890
 4198.00    0.99220   0.99505   80.122
 4199.00    0.99330   0.99106   79.044
 4200.00    0.99597   0.99196   78.195
 4201.00    0.99643   0.99521   76.497
 4202.00    0.99715   0.99981   74.698
 4203.00    1.00055   1.00610   73.594
 4204.00    1.00560   1.01351   73.473
 4205.00    1.01016   1.02103   73.656
 4206.00    1.01468   1.02820   73.368
 4207.00    1.01870   1.03409   73.134
 4208.00    1.02459   1.03767   74.209
 4209.00    1.02792   1.03957   77.028
 4210.00    1.02777   1.04158   80.174
 4211.00    1.03138   1.04413   80.730
 4212.00    1.03727   1.04470   77.027
 4213.00    1.03459   1.03978   72.526
 4214.00    1.02169   1.02977   69.745
 4215.00    1.01094   1.02051   68.224
 4216.00    1.00148   1.01881   67.960
 4217.00    1.00757   1.02622   69.319
 4218.00    1.02512   1.03790   72.900
 4219.00    1.03380   1.04792   78.770
 4220.00    1.04178   1.05310   87.542
 4221.00    1.04054   1.05173   -1.000
 4222.00    1.02582   1.04188   -1.000
 4223.00    1.00910   1.02286   -1.000
 4224.00    0.99327   0.99804   80.104
 4225.00    0.96593   0.97560   73.360
 4226.00    0.93272   0.96573   -1.000
 4227.00    0.93236   0.97531   -1.000
 4228.00    0.96888   1.00140   -1.000
 4229.00    1.01002   1.03038   -1.000
 4230.00    1.02778   1.04751   -1.000
 4231.00    1.02809   1.04813   -1.000
 4232.00    1.02248   1.03833   77.703
 4233.00    1.01458   1.02762   76.623
 4234.00    1.01305   1.02254   75.030
 4235.00    1.00954   1.02389   73.853
 4236.00    1.01025   1.02875   72.561
 4237.00    1.01121   1.03498   -1.000
 4238.00    1.01518   1.04222   -1.000
 4239.00    1.02426   1.05013   -1.000
 4240.00    1.03740   1.05780   69.133
 4241.00    1.03701   1.06394   -1.000
 4242.00    1.03227   1.06750   -1.000
 4243.00    1.03248   1.06765   -1.000
 4244.00    1.03727   1.06335   -1.000
 4245.00    1.03460   1.05413   78.308
 4246.00    1.01679   1.04202   -1.000
 4247.00    1.00150   1.03139   -1.000
 4248.00    0.99605   1.02542   -1.000
 4249.00    0.99118   1.02425   -1.000
 4250.00    0.98935   1.02712   -1.000
 4251.00    1.00180   1.03326   -1.000
 4252.00    1.01909   1.04024   -1.000
 4253.00    1.02442   1.04536   -1.000
 4254.00    1.02392   1.04846   -1.000
 4255.00    1.02073   1.05101   -1.000
 4256.00    1.02344   1.05268   -1.000
 4257.00    1.02713   1.05085   -1.000
 4258.00    1.02234   1.04478   -1.000
 4259.00    1.01176   1.03819   -1.000
 4260.00    1.00909   1.03668   -1.000
 4261.00    1.01592   1.04341   -1.000
 4262.00    1.02695   1.05660   -1.000
 4263.00    1.04035   1.07033   -1.000
 4264.00    1.05377   1.07883   -1.000
 4265.00    1.05654   1.08045   -1.000
 4266.00    1.04904   1.07674   -1.000
 4267.00    1.03528   1.06902   -1.000
 4268.00    1.02576   1.05737   -1.000
 4269.00    1.01418   1.04193   -1.000
 4270.00    1.00096   1.02498   -1.000
 4271.00    0.97923   1.01149   -1.000
 4272.00    0.96822   1.00632   -1.000
 4273.00    0.97604   1.01070   -1.000
 4274.00    0.99052   1.02233   -1.000
 4275.00    1.00175   1.03807   -1.000
 4276.00    1.02138   1.05460   -1.000
 4277.00    1.03857   1.06747   -1.000
 4278.00    1.04224   1.07271   -1.000
 4279.00    1.03005   1.06996   -1.000
 4280.00    1.01564   1.06270   -1.000
 4281.00    1.01416   1.05562   -1.000
 4282.00    1.01664   1.05162   -1.000
 4283.00    1.01803   1.05068   -1.000
 4284.00    1.01559   1.05003   -1.000
 4285.00    1.00741   1.04566   -1.000
 4286.00    0.99797   1.03511   -1.000
 4287.00    0.99267   1.01932   -1.000
 4288.00    0.97797   1.00226   -1.000
 4289.00    0.95977   0.98987   -1.000
 4290.00    0.94827   0.98741   -1.000
 4291.00    0.96003   0.99433   -1.000
 4292.00    0.98098   1.00321   -1.000
 4293.00    0.98855   1.00688   88.201
 4294.00    0.98967   1.00529   -1.000
 4295.00    0.99111   1.00178  100.260
 4296.00    0.98241   0.99587   99.538
 4297.00    0.96223   0.98415   -1.000
 4298.00    0.94157   0.96579   -1.000
 4299.00    0.91453   0.94510   -1.000
 4300.00    0.89366   0.92927   -1.000
 4301.00    0.89580   0.92335   -1.000
 4302.00    0.90577   0.92756   -1.000
 4303.00    0.91665   0.93813   -1.000
 4304.00    0.92956   0.94857   -1.000
 4305.00    0.93344   0.95245   -1.000
 4306.00    0.92376   0.94848   -1.000
 4307.00    0.90367   0.94200   -1.000
 4308.00    0.89459   0.94025   -1.000
 4309.00    0.90000   0.94614   -1.000
 4310.00    0.91769   0.95619   -1.000
 4311.00    0.92903   0.96433   -1.000
 4312.00    0.94362   0.96832   64.834
 4313.00    0.95450   0.97308   63.615
 4314.00    0.95638   0.98607   64.115
 4315.00    0.98604   1.00936   65.352
 4316.00    1.02565   1.03644   67.172
 4317.00    1.04974   1.05721   69.929
 4318.00    1.05551   1.06596   74.161
 4319.00    1.04603   1.06397   80.245
 4320.00    1.03767   1.05604   85.826
 4321.00    1.03612   1.04562   85.031
 4322.00    1.02441   1.03248   77.607
 4323.00    0.99660   1.01556   70.488
 4324.00    0.96702   0.99843   -1.000
 4325.00    0.95659   0.98992   -1.000
 4326.00    0.96917   0.99553   66.738
 4327.00    0.99187   1.01019   65.975
 4328.00    1.01350   1.02291   65.007
 4329.00    1.02688   1.02702   64.597
 4330.00    1.01275   1.02403   65.038
 4331.00    0.99993   1.01839   67.563
 4332.00    1.00365   1.01098   73.032
 4333.00    0.99442   0.99867   80.117
 4334.00    0.98038   0.97705   87.204
 4335.00    0.95896   0.94215   92.092
 4336.00    0.91813   0.89171   89.829
 4337.00    0.86805   0.82867   81.833
 4338.00    0.80417   0.76432   75.130
 4339.00    0.73305   0.71576   71.655
 4340.00    0.69432   0.69942   69.606
 4341.00    0.71905   0.72259   68.053
 4342.00    0.79146   0.77659   67.128
 4343.00    0.85631   0.84078   66.244
 4344.00    0.89654   0.89763   65.735
 4345.00    0.93356   0.94179   67.561
 4346.00    0.96672   0.97517   72.077
 4347.00    0.98521   0.99859   75.492
 4348.00    0.99371   1.01017   74.379
 4349.00    0.99950   1.00942   71.037
 4350.00    0.99363   1.00135   68.303
 4351.00    0.98204   0.99546   66.560
 4352.00    0.97852   0.99983   65.872
 4353.00    0.99230   1.01566   66.626
 4354.00    1.01789   1.03709   67.833
 4355.00    1.03674   1.05596   67.597
 4356.00    1.04939   1.06737   65.840
 4357.00    1.05127   1.07165   64.426
 4358.00    1.04190   1.07272   63.978
 4359.00    1.03986   1.07505   63.503
 4360.00    1.04521   1.08077   63.092
 4361.00    1.05435   1.08885   64.035
 4362.00    1.06529   1.09681   66.280
 4363.00    1.06745   1.10236   -1.000
 4364.00    1.07219   1.10386   67.884
 4365.00    1.07982   1.10046   67.290
 4366.00    1.07555   1.09268   67.062
 4367.00    1.06474   1.08327   67.377
 4368.00    1.05751   1.07594   69.102
 4369.00    1.05638   1.07224   71.984
 4370.00    1.05720   1.07042   73.439
 4371.00    1.05960   1.06682   71.809
 4372.00    1.05782   1.05853   68.406
 4373.00    1.04690   1.04662   66.073
 4374.00    1.03336   1.03744   65.763
 4375.00    1.02665   1.03857   66.603
 4376.00    1.03562   1.05150   68.801
 4377.00    1.05241   1.06939   74.269
 4378.00    1.06419   1.08273   82.828
 4379.00    1.07403   1.08577   87.919
 4380.00    1.07678   1.07706   83.724
 4381.00    1.06407   1.05737   75.644
 4382.00    1.03531   1.03130   70.922
 4383.00    1.00344   1.00866   69.964
 4384.00    0.99531   0.99966   70.452
 4385.00    1.01722   1.00748   70.965
 4386.00    1.04229   1.02585   70.332
 4387.00    1.05867   1.04465   68.794
 4388.00    1.07226   1.05733   68.283
 4389.00    1.07030   1.06310   69.369
 4390.00    1.05973   1.06472   70.008
 4391.00    1.06482   1.06446   68.099
 4392.00    1.07496   1.06146   65.485
 4393.00    1.06986   1.05465   65.097
 4394.00    1.05966   1.04778   66.894
 4395.00    1.05426   1.04725   69.179
 4396.00    1.06280   1.05385   69.690
 4397.00    1.07959   1.06090   68.537
 4398.00    1.07816   1.06223   69.199
 4399.00    1.06577   1.05911   72.631
 4400.00    1.06085   1.05754   75.009
 4401.00    1.06374   1.06023   73.786
 4402.00    1.07421   1.06393   71.965
 4403.00    1.07414   1.06488   71.187
 4404.00    1.05624   1.06366   69.410
 4405.00    1.04800   1.06357   66.502
 4406.00    1.05844   1.06601   63.965
 4407.00    1.06139   1.06975   62.582
 4408.00    1.06368   1.07443   63.197
 4409.00    1.07617   1.08135   66.040
 4410.00    1.08664   1.09013   69.171
 4411.00    1.09628   1.09674   70.031
 4412.00    1.09998   1.09606   68.394
 4413.00    1.09111   1.08592   65.681
 4414.00    1.06697   1.06940   63.423
 4415.00    1.04502   1.05411   62.847
 4416.00    1.04190   1.04810   64.000
 4417.00    1.05217   1.05489   65.448
 4418.00    1.06695   1.07128   65.749
 4419.00    1.08067   1.08918   65.355
 4420.00    1.08530   1.10105   65.353
 4421.00    1.08302   1.10498   65.653
 4422.00    1.07957   1.10458   65.535
 4423.00    1.07536   1.10356   -1.000
 4424.00    1.07721   1.10245   65.421
 4425.00    1.07810   1.10079   65.867
 4426.00    1.07274   1.09964   65.506
 4427.00    1.07504   1.10059   64.846
 4428.00    1.08290   1.10373   65.836
 4429.00    1.08442   1.10747   68.711
 4430.00    1.08691   1.11017   70.653
 4431.00    1.09451   1.11082   69.263
 4432.00    1.09768   1.10858   65.503
 4433.00    1.08616   1.10336   62.162
 4434.00    1.06259   1.09805   -1.000
 4435.00    1.05551   1.09816   -1.000
 4436.00    1.07268   1.10711   -1.000
 4437.00    1.09627   1.12157   67.650
 4438.00    1.11514   1.13294   68.987
 4439.00    1.12133   1.13371   67.483
 4440.00    1.11297   1.12223   64.662
 4441.00    1.09375   1.10354   62.787
 4442.00    1.06748   1.08688   62.347
 4443.00    1.05389   1.08129   62.463
 4444.00    1.06657   1.08973   62.920
 4445.00    1.08734   1.10650   63.595
 4446.00    1.10292   1.12198   63.567
 4447.00    1.11647   1.13043   63.585
 4448.00    1.11969   1.13236   65.164
 4449.00    1.10900   1.13124   67.999
 4450.00    1.10197   1.13019   -1.000
 4451.00    1.10507   1.12989   69.982
 4452.00    1.11189   1.12814   68.683
 4453.00    1.11042   1.12261   68.210
 4454.00    1.09106   1.11512   68.477
 4455.00    1.07866   1.11095   -1.000
 4456.00    1.08782   1.11293   -1.000
 4457.00    1.09951   1.11827   69.144
 4458.00    1.10087   1.12225   66.886
 4459.00    1.09575   1.12295   64.850
 4460.00    1.09305   1.12197   -1.000
 4461.00    1.09012   1.12201   -1.000
 4462.00    1.09382   1.12411   -1.000
 4463.00    1.10572   1.12694   65.777
 4464.00    1.11161   1.12823   66.539
 4465.00    1.11085   1.12585   66.102
 4466.00    1.10597   1.11880   64.425
 4467.00    1.09901   1.10897   62.238
 4468.00    1.09296   1.10157   60.362
 4469.00    1.09245   1.10185   59.423
 4470.00    1.09770   1.11107   59.325
 4471.00    1.10990   1.12574   59.064
 4472.00    1.12982   1.14063   58.632
 4473.00    1.14185   1.15203   58.830
 4474.00    1.14515   1.15880   60.396
 4475.00    1.14834   1.16187   63.006
 4476.00    1.14427   1.16260   65.230
 4477.00    1.14278   1.16030   65.444
 4478.00    1.14883   1.15227   63.356
 4479.00    1.14499   1.13803   60.801
 4480.00    1.12806   1.12312   59.134
 4481.00    1.11506   1.11640   58.736
 4482.00    1.11009   1.12282   59.638
 4483.00    1.12011   1.13916   61.620
 4484.00    1.13588   1.15681   63.434
 4485.00    1.14515   1.16789   63.514
 4486.00    1.15104   1.16889   62.120
 4487.00    1.14182   1.16131   60.855
 4488.00    1.12554   1.15103   61.086
 4489.00    1.11631   1.14488   62.662
 4490.00    1.12345   1.14587   64.259
 4491.00    1.13941   1.15132   64.302
 4492.00    1.14627   1.15588   62.567
 4493.00    1.13619   1.15667   60.621
 4494.00    1.12385   1.15536   59.621
 4495.00    1.11835   1.15511   -1.000
 4496.00    1.12279   1.15691   60.379
 4497.00    1.13627   1.15885   59.473
 4498.00    1.14715   1.15785   57.551
 4499.00    1.14678   1.15267   56.179
 4500.00    1.13904   1.14676   56.092
 4501.00    1.13915   1.14639   57.005
 4502.00    1.15242   1.15453   57.805
 4503.00    1.16628   1.16744   58.019
 4504.00    1.16978   1.17798   57.733
 4505.00    1.17120   1.18159   57.303
 4506.00    1.16786   1.17880   57.479
 4507.00    1.16394   1.17393   58.417
 4508.00    1.16296   1.17168   59.521
 4509.00    1.16009   1.17357   60.130
 4510.00    1.16774   1.17717   60.046
 4511.00    1.17189   1.17900   59.899
 4512.00    1.16901   1.17747   60.371
 4513.00    1.16865   1.17318   60.878
 4514.00    1.15976   1.16808   60.303
 4515.00    1.15136   1.16428   59.131
 4516.00    1.14674   1.16224   58.847
 4517.00    1.14306   1.16039   59.862
 4518.00    1.14813   1.15748   61.183
 4519.00    1.15442   1.15420   61.944
 4520.00    1.15352   1.15163   62.796
 4521.00    1.14117   1.14932   64.444
 4522.00    1.14189   1.14690   66.345
 4523.00    1.14808   1.14554   67.501
 4524.00    1.14067   1.14587   67.413
 4525.00    1.13311   1.14595   66.423
 4526.00    1.12915   1.14301   65.207
 4527.00    1.12565   1.13689   64.599
 4528.00    1.11915   1.13076   65.726
 4529.00    1.11929   1.12826   67.892
 4530.00    1.12238   1.12921   68.048
 4531.00    1.12516   1.12895   65.025
 4532.00    1.12773   1.12354   61.161
 4533.00    1.11134   1.11557   58.885
 4534.00    1.09018   1.11284   58.797
 4535.00    1.09361   1.12086   59.995
 4536.00    1.11896   1.13773   60.438
 4537.00    1.13967   1.15620   60.081
 4538.00    1.20148   1.16910   59.780
 4539.00    0.87994   1.17341   -1.000
 4540.00    0.22053   1.17128   -2.000
 4541.00   -0.04113   1.16759   -2.000
 4542.00    0.33939   1.16581   -2.000
 4543.00    0.69677   1.16593   -1.000
 4544.00    0.51454   1.16622   -1.000
 4545.00    0.91576   1.16538   -1.000
 4546.00    1.17167   1.16166   64.728
 4547.00    1.14337   1.15264   62.494
 4548.00    1.12734   1.13934   63.292
 4549.00    1.11486   1.12887   64.017
 4550.00    1.11626   1.12822   63.515
 4551.00    1.13507   1.13526   61.565
 4552.00    1.14581   1.14044   59.121
 4553.00    1.13324   1.13828   57.673
 4554.00    1.12388   1.13336   57.615
 4555.00    1.12585   1.13413   57.713
 4556.00    1.14176   1.14377   57.711
 4557.00    1.15711   1.15820   58.658
 4558.00    1.16572   1.17163   60.125
 4559.00    1.17591   1.18138   61.300
 4560.00    1.17826   1.18648   61.123
 4561.00    1.17723   1.18525   59.790
 4562.00    1.16607   1.17779   58.206
 4563.00    1.15444   1.16911   57.342
 4564.00    1.15175   1.16600   57.637
 4565.00    1.15619   1.17083   58.884
 4566.00    1.16524   1.17990   60.440
 4567.00    1.17608   1.18730   60.587
 4568.00    1.17950   1.18890   59.105
 4569.00    1.16954   1.18352   57.967
 4570.00    1.15526   1.17334   57.771
 4571.00    1.14496   1.16424   57.987
 4572.00    1.14154   1.16273   58.309
 4573.00    1.15113   1.16948   59.123
 4574.00    1.17253   1.17818   60.697
 4575.00    1.18254   1.18277   62.131
 4576.00    1.17903   1.18272   62.355
 4577.00    1.17491   1.18008   61.642
 4578.00    1.17335   1.17549   61.059
 4579.00    1.17096   1.16873   61.073
 4580.00    1.15925   1.16062   61.415
 4581.00    1.15639   1.15249   60.904
 4582.00    1.15073   1.14581   59.483
 4583.00    1.15145   1.14327   58.123
 4584.00    1.15470   1.14709   57.729
 4585.00    1.16240   1.15564   58.342
 4586.00    1.17528   1.16426   59.387
 4587.00    1.18178   1.16946   60.454
 4588.00    1.17667   1.17097   60.779
 4589.00    1.17309   1.17074   60.396
 4590.00    1.17199   1.17088   59.900
 4591.00    1.16102   1.17216   59.659
 4592.00    1.15814   1.17457   59.530
 4593.00    1.16260   1.17828   59.398
 4594.00    1.16731   1.18328   59.750
 4595.00    1.17281   1.18889   60.298
 4596.00    1.17684   1.19360   60.564
 4597.00    1.17969   1.19569   60.122
 4598.00    1.18981   1.19448   59.441
 4599.00    1.19623   1.19070   59.343
 4600.00    1.18558   1.18607   59.307
 4601.00    1.17148   1.18247   58.794
 4602.00    1.16289   1.18120   57.750
 4603.00    1.16720   1.18234   56.526
 4604.00    1.17708   1.18499   55.721
 4605.00    1.18173   1.18822   55.752
 4606.00    1.18907   1.19178   56.408
 4607.00    1.18896   1.19565   57.082
 4608.00    1.18686   1.19940   57.516
 4609.00    1.19694   1.20216   57.387
 4610.00    1.20243   1.20310   56.919
 4611.00    1.19686   1.20233   56.619
 4612.00    1.19325   1.20096   56.857
 4613.00    1.19410   1.19986   57.281
 4614.00    1.19448   1.19858   57.342
 4615.00    1.18711   1.19611   56.901
 4616.00    1.18574   1.19253   56.070
 4617.00    1.18826   1.18905   55.841
 4618.00    1.19121   1.18712   55.959
 4619.00    1.19124   1.18806   56.079
 4620.00    1.19525   1.19241   56.501
 4621.00    1.20351   1.19890   56.735
 4622.00    1.20896   1.20467   56.738
 4623.00    1.20998   1.20735   57.012
 4624.00    1.20195   1.20668   57.197
 4625.00    1.19515   1.20399   56.999
 4626.00    1.19480   1.20035   56.414
 4627.00    1.19873   1.19612   56.457
 4628.00    1.19489   1.19245   57.172
 4629.00    1.18208   1.19174   57.859
 4630.00    1.18482   1.19516   57.956
 4631.00    1.20166   1.20040   58.301
 4632.00    1.20335   1.20364   59.020
 4633.00    1.20369   1.20363   59.385
 4634.00    1.19828   1.20246   59.364
 4635.00    1.19505   1.20257   58.546
 4636.00    1.19450   1.20428   57.186
 4637.00    1.19452   1.20661   56.264
 4638.00    1.19903   1.20938   56.289
 4639.00    1.20614   1.21320   57.181
 4640.00    1.20627   1.21805   58.695
 4641.00    1.20762   1.22271   60.340
 4642.00    1.20642   1.22560   60.893
 4643.00    1.20905   1.22557   60.065
 4644.00    1.21187   1.22219   58.707
 4645.00    1.20008   1.21610   57.781
 4646.00    1.19286   1.20955   57.548
 4647.00    1.18702   1.20583   57.441
 4648.00    1.18961   1.20684   57.963
 4649.00    1.19554   1.21150   59.194
 4650.00    1.19799   1.21688   60.025
 4651.00    1.19698   1.22031   59.737
 4652.00    1.18876   1.22042   58.081
 4653.00    1.18849   1.21745   55.901
 4654.00    1.18480   1.21299   54.469
 4655.00    1.17872   1.20936   54.199
 4656.00    1.18262   1.20904   54.749
 4657.00    1.19761   1.21395   55.981
 4658.00    1.21519   1.22353   57.150
 4659.00    1.21459   1.23371   57.467
 4660.00    1.21327   1.23964   58.246
 4661.00    1.21353   1.23948   60.477
 4662.00    1.20946   1.23504   63.042
 4663.00    1.21239   1.22883   63.581
 4664.00    1.21558   1.22148   61.953
 4665.00    1.20943   1.21219   59.449
 4666.00    1.19757   1.20147   57.673
 4667.00    1.18602   1.19263   57.123
 4668.00    1.17616   1.18942   57.114
 4669.00    1.18428   1.19289   57.077
 4670.00    1.19363   1.20099   56.449
 4671.00    1.19938   1.21039   55.608
 4672.00    1.21066   1.21826   55.691
 4673.00    1.20557   1.22380   56.758
 4674.00    1.21025   1.22781   57.915
 4675.00    1.21750   1.23076   58.904
 4676.00    1.21931   1.23162   59.542
 4677.00    1.21856   1.22914   59.014
 4678.00    1.21127   1.22374   57.627
 4679.00    1.20616   1.21734   56.746
 4680.00    1.20101   1.21204   56.793
 4681.00    1.19799   1.20940   56.855
 4682.00    1.20160   1.20990   57.129
 4683.00    1.21072   1.21258   57.188
 4684.00    1.21327   1.21564   57.189
 4685.00    1.21744   1.21788   57.539
 4686.00    1.23072   1.21932   57.710
 4687.00    1.22791   1.22060   57.146
 4688.00    1.22190   1.22195   56.310
 4689.00    1.22388   1.22281   55.113
 4690.00    1.22114   1.22277   54.324
 4691.00    1.21518   1.22254   54.450
 4692.00    1.21120   1.22317   55.837
 4693.00    1.21649   1.22473   57.534
 4694.00    1.22716   1.22643   58.368
 4695.00    1.23283   1.22720   58.056
 4696.00    1.23651   1.22573   58.346
 4697.00    1.22583   1.22143   59.306
 4698.00    1.22466   1.21560   59.731
 4699.00    1.21861   1.21021   58.792
 4700.00    1.21153   1.20570   57.873
 4701.00    1.21125   1.20141   58.445
 4702.00    1.20765   1.19783   59.592
 4703.00    1.19993   1.19683   60.260
 4704.00    1.20596   1.19910   60.061
 4705.00    1.21282   1.20212   58.474
 4706.00    1.21131   1.20250   56.837
 4707.00    1.20647   1.19981   56.141
 4708.00    1.19491   1.19736   56.541
 4709.00    1.19900   1.19869   57.557
 4710.00    1.21691   1.20394   57.709
 4711.00    1.22427   1.20980   56.697
 4712.00    1.22767   1.21277   55.590
 4713.00    1.22986   1.21240   55.153
 4714.00    1.22042   1.21144   54.946
 4715.00    1.21692   1.21299   54.758
 4716.00    1.22030   1.21746   55.143
 4717.00    1.21938   1.22270   55.553
 4718.00    1.22367   1.22670   55.314
 4719.00    1.22204   1.22909   54.739
 4720.00    1.21616   1.23031   54.738
 4721.00    1.21804   1.23094   55.926
 4722.00    1.21137   1.23190   57.982
 4723.00    1.21176   1.23391   59.403
 4724.00    1.22386   1.23632   59.357
 4725.00    1.22463   1.23727   58.779
 4726.00    1.22661   1.23526   58.298
 4727.00    1.22298   1.23044   57.622
 4728.00    1.21476   1.22424   57.097
 4729.00    1.21809   1.21827   56.755
 4730.00    1.22474   1.21401   56.439
 4731.00    1.22588   1.21311   56.947
 4732.00    1.22116   1.21604   57.087
 4733.00    1.22669   1.22063   56.426
 4734.00    1.22530   1.22372   56.364
 4735.00    1.22154   1.22401   56.668
 4736.00    1.21876   1.22280   56.772
 4737.00    1.21320   1.22210   56.368
 4738.00    1.22792   1.22264   55.762
 4739.00    1.23575   1.22393   55.801
 4740.00    1.23195   1.22552   55.863
 4741.00    1.23283   1.22763   55.489
 4742.00    1.23595   1.23056   54.936
 4743.00    1.23825   1.23412   54.777
 4744.00    1.23339   1.23779   54.845
 4745.00    1.22823   1.24140   54.888
 4746.00    1.23711   1.24529   55.254
 4747.00    1.23893   1.24958   55.866
 4748.00    1.23375   1.25368   56.352
 4749.00    1.23020   1.25690   56.746
 4750.00    1.23753   1.25888   56.688
 4751.00    1.23997   1.25940   56.878
 4752.00    1.23572   1.25832   57.287
 4753.00    1.23042   1.25609   57.383
 4754.00    1.21814   1.25380   56.948
 4755.00    1.21886   1.25263   56.809
 4756.00    1.21644   1.25300   57.619
 4757.00    1.22108   1.25422   59.030
 4758.00    1.21529   1.25488   59.855
 4759.00    1.21275   1.25360   59.994
 4760.00    1.21780   1.24928   59.882
 4761.00    1.22503   1.24179   59.482
 4762.00    1.21570   1.23300   58.686
 4763.00    1.20392   1.22646   57.384
 4764.00    1.20741   1.22513   56.546
 4765.00    1.21722   1.22940   56.579
 4766.00    1.22564   1.23728   57.038
 4767.00    1.22409   1.24617   57.545
 4768.00    1.22609   1.25412   56.961
 4769.00    1.23466   1.25957   55.769
 4770.00    1.24151   1.26150   55.328
 4771.00    1.23652   1.26052   55.348
 4772.00    1.22841   1.25907   55.506
 4773.00    1.23354   1.25953   55.857
 4774.00    1.23855   1.26212   56.472
 4775.00    1.23846   1.26500   56.827
 4776.00    1.24455   1.26615   56.980
 4777.00    1.24758   1.26449   57.250
 4778.00    1.24159   1.26023   57.703
 4779.00    1.23074   1.25548   57.710
 4780.00    1.22739   1.25325   57.889
 4781.00    1.23129   1.25438   58.448
 4782.00    1.22942   1.25661   58.801
 4783.00    1.23885   1.25740   58.763
 4784.00    1.23811   1.25616   58.484
 4785.00    1.22265   1.25367   58.125
 4786.00    1.22515   1.25113   57.530
 4787.00    1.22795   1.24974   56.600
 4788.00    1.22688   1.25021   55.349
 4789.00    1.23212   1.25260   54.383
 4790.00    1.23352   1.25674   54.149
 4791.00    1.23508   1.26231   54.663
 4792.00    1.24160   1.26860   55.749
 4793.00    1.24731   1.27453   56.802
 4794.00    1.25172   1.27866   57.495
 4795.00    1.25610   1.27958   57.041
 4796.00    1.24735   1.27692   55.905
 4797.00    1.23968   1.27212   55.085
 4798.00    1.23968   1.26799   55.132
 4799.00    1.24069   1.26718   55.850
 4800.00    1.24413   1.27018   56.571
 4801.00    1.25200   1.27459   57.094
 4802.00    1.25143   1.27635   57.098
 4803.00    1.24476   1.27290   56.957
 4804.00    1.24592   1.26601   56.704
 4805.00    1.24518   1.26049   56.196
 4806.00    1.24088   1.25974   55.789
 4807.00    1.24320   1.26331   55.500
 4808.00    1.24692   1.26821   55.438
 4809.00    1.24892   1.27168   55.306
 4810.00    1.25120   1.27309   55.108
 4811.00    1.24458   1.27395   54.763
 4812.00    1.24801   1.27614   54.423
 4813.00    1.25266   1.28000   54.199
 4814.00    1.25739   1.28413   54.175
 4815.00    1.26145   1.28708   54.177
 4816.00    1.25701   1.28860   54.645
 4817.00    1.25131   1.28906   56.077
 4818.00    1.25714   1.28855   57.160
 4819.00    1.26261   1.28680   57.075
 4820.00    1.25453   1.28326   56.075
 4821.00    1.24575   1.27713   55.203
 4822.00    1.24474   1.26856   55.415
 4823.00    1.24104   1.26011   56.070
 4824.00    1.23696   1.25557   56.425
 4825.00    1.24448   1.25656   56.414
 4826.00    1.25259   1.26087   56.932
 4827.00    1.25771   1.26472   57.035
 4828.00    1.25286   1.26606   56.128
 4829.00    1.24500   1.26543   55.378
 4830.00    1.25239   1.26415   55.169
 4831.00    1.24822   1.26294   55.259
 4832.00    1.24214   1.26202   55.523
 4833.00    1.24365   1.26146   56.283
 4834.00    1.24537   1.26096   57.296
 4835.00    1.25393   1.26030   57.334
 4836.00    1.26149   1.25973   57.211
 4837.00    1.25802   1.25939   56.923
 4838.00    1.24521   1.25886   56.497
 4839.00    1.22849   1.25780   55.931
 4840.00    1.22971   1.25659   55.049
 4841.00    1.22689   1.25551   54.766
 4842.00    1.23654   1.25421   55.887
 4843.00    1.23579   1.25245   56.725
 4844.00    1.23551   1.25046   56.716
 4845.00    1.23423   1.24805   55.912
 4846.00    1.23620   1.24408   55.784
 4847.00    1.22937   1.23804   56.108
 4848.00    1.21937   1.23161   56.589
 4849.00    1.21260   1.22694   58.299
 4850.00    1.22147   1.22388   59.958
 4851.00    1.21265   1.21978   59.807
 4852.00    1.20417   1.21133   59.190
 4853.00    1.19492   1.19650   60.842
 4854.00    1.17415   1.17609   66.162
 4855.00    1.15126   1.15311   74.039
 4856.00    1.13432   1.12837   77.566
 4857.00    1.11363   1.09625   72.711
 4858.00    1.08888   1.04690   -1.000
 4859.00    1.01029   0.97812   62.303
 4860.00    0.89584   0.90663   60.121
 4861.00    0.82425   0.86387   58.861
 4862.00    0.86392   0.87230   58.337
 4863.00    0.97124   0.92608   58.091
 4864.00    1.06073   0.99792   -1.000
 4865.00    1.10682   1.06296   60.302
 4866.00    1.13541   1.11191   61.780
 4867.00    1.16158   1.14617   61.207
 4868.00    1.17563   1.16825   59.424
 4869.00    1.17368   1.17902   58.408
 4870.00    1.16620   1.18093   57.969
 4871.00    1.15890   1.18021   57.655
 4872.00    1.15752   1.18376   57.466
 4873.00    1.17494   1.19371   56.606
 4874.00    1.19974   1.20649   56.009
 4875.00    1.20954   1.21730   56.541
 4876.00    1.20597   1.22473   57.496
 4877.00    1.20077   1.23105   57.820
 4878.00    1.20780   1.23898   57.605
 4879.00    1.22228   1.24851   57.934
 4880.00    1.23056   1.25633   58.856
 4881.00    1.22784   1.25905   59.151
 4882.00    1.22643   1.25683   58.811
 4883.00    1.23131   1.25342   58.739
 4884.00    1.23370   1.25252   59.648
 4885.00    1.23247   1.25477   60.998
 4886.00    1.23942   1.25800   60.527
 4887.00    1.23953   1.25920   58.015
 4888.00    1.23534   1.25626   55.288
 4889.00    1.21932   1.24941   53.693
 4890.00    1.20524   1.24263   52.707
 4891.00    1.20425   1.24229   52.483
 4892.00    1.21843   1.25183   52.615
 4893.00    1.24183   1.26842   53.808
 4894.00    1.25740   1.28560   55.089
 4895.00    1.27485   1.29860   55.665
 4896.00    1.27110   1.30593   55.357
 4897.00    1.27271   1.30774   55.455
 4898.00    1.27647   1.30477   56.160
 4899.00    1.26166   1.29914   55.488
 4900.00    1.25716   1.29395   54.276
 4901.00    1.26790   1.29103   53.895
 4902.00    1.26274   1.29014   54.443
 4903.00    1.25400   1.29116   55.803
 4904.00    1.26115   1.29504   57.425
 4905.00    1.26957   1.30133   58.095
 4906.00    1.27436   1.30672   57.265
 4907.00    1.27315   1.30772   56.217
 4908.00    1.27721   1.30354   55.456
 4909.00    1.27198   1.29631   54.738
 4910.00    1.26233   1.28970   54.278
 4911.00    1.26476   1.28710   54.602
 4912.00    1.26893   1.28959   56.612
 4913.00    1.27214   1.29551   59.771
 4914.00    1.27656   1.30158   62.562
 4915.00    1.27451   1.30418   63.126
 4916.00    1.27610   1.29987   60.963
 4917.00    1.26907   1.28700   58.771
 4918.00    1.24558   1.26769   57.968
 4919.00    1.22191   1.24804   57.920
 4920.00    1.21238   1.23485   57.129
 4921.00    1.22399   1.23068   55.616
 4922.00    1.23465   1.23274   54.654
 4923.00    1.23441   1.23789   54.161
 4924.00    1.23630   1.24668   53.796
 4925.00    1.24552   1.26063   53.503
 4926.00    1.26570   1.27780   54.099
 4927.00    1.28179   1.29373   55.635
 4928.00    1.28210   1.30533   57.615
 4929.00    1.29312   1.31170   57.642
 4930.00    1.30118   1.31222   56.602
 4931.00    1.28338   1.30595   56.672
 4932.00    1.27123   1.29378   58.411
 4933.00    1.25190   1.28078   59.928
 4934.00    1.24428   1.27357   59.260
 4935.00    1.24782   1.27392   57.187
 4936.00    1.26910   1.27694   55.390
 4937.00    1.26523   1.27719   54.417
 4938.00    1.24074   1.27514   53.962
 4939.00    1.23621   1.27602   54.037
 4940.00    1.25407   1.28362   54.423
 4941.00    1.27797   1.29643   54.499
 4942.00    1.27806   1.30958   53.976
 4943.00    1.28384   1.31874   53.355
 4944.00    1.28892   1.32251   53.207
 4945.00    1.28933   1.32252   53.009
 4946.00    1.28138   1.32178   53.309
 4947.00    1.28560   1.32254   53.694
 4948.00    1.29548   1.32489   54.330
 4949.00    1.29828   1.32738   55.058
 4950.00    1.29041   1.32867   56.646
 4951.00    1.29317   1.32844   59.598
 4952.00    1.29600   1.32688   61.749
 4953.00    1.29599   1.32313   60.227
 4954.00    1.28947   1.31462   56.789
 4955.00    1.27721   1.29900   54.975
 4956.00    1.25239   1.27913   54.642
 4957.00    1.22121   1.26467   54.933
 4958.00    1.22477   1.26466   55.393
 4959.00    1.25564   1.27905   56.096
 4960.00    1.27713   1.29917   57.277
 4961.00    1.28657   1.31582   57.953
 4962.00    1.29478   1.32484   57.930
 4963.00    1.29423   1.32654   57.734
 4964.00    1.28845   1.32294   57.283
 4965.00    1.28244   1.31683   56.663
 4966.00    1.27869   1.31135   56.049
 4967.00    1.28929   1.30865   55.386
 4968.00    1.29312   1.30916   54.892
 4969.00    1.29014   1.31226   54.727
 4970.00    1.29060   1.31693   55.145
 4971.00    1.29204   1.32196   55.748
 4972.00    1.29900   1.32628   56.526
 4973.00    1.29812   1.32909   57.436
 4974.00    1.30251   1.33004   58.148
 4975.00    1.30205   1.32899   59.072
 4976.00    1.29241   1.32606   61.060
 4977.00    1.29463   1.32200   62.866
 4978.00    1.29535   1.31746   62.697
 4979.00    1.27845   1.31146   61.425
 4980.00    1.27211   1.30218   59.657
 4981.00    1.25918   1.28974   57.793
 4982.00    1.23958   1.27785   56.512
 4983.00    1.22735   1.27154   56.680
 4984.00    1.24089   1.27350   57.518
 4985.00    1.25454   1.28266   58.047
 4986.00    1.27011   1.29550   58.001
 4987.00    1.28477   1.30731   57.494
 4988.00    1.29139   1.31378   57.281
 4989.00    1.28316   1.31331   57.232
 4990.00    1.27889   1.30830   56.929
 4991.00    1.26770   1.30349   56.713
 4992.00    1.27374   1.30233   57.120
 4993.00    1.27282   1.30531   57.942
 4994.00    1.27073   1.31105   59.082
 4995.00    1.27814   1.31712   59.734
 4996.00    1.28584   1.32031   59.688
 4997.00    1.29382   1.31742   59.122
 4998.00    1.28646   1.30733   58.876
 4999.00    1.27995   1.29407   59.833
 5000.00    1.26380   1.28503   61.250
 5001.00    1.26349   1.28401   61.340
 5002.00    1.27473   1.28807   59.738
 5003.00    1.27849   1.29076   58.043
 5004.00    1.26911   1.28808   57.619
 5005.00    1.25655   1.28170   58.531
 5006.00    1.24652   1.27752   60.379
 5007.00    1.25319   1.28000   62.563
 5008.00    1.26864   1.28766   63.780
 5009.00    1.28506   1.29453   63.282
 5010.00    1.29154   1.29536   61.856
 5011.00    1.27149   1.28935   60.693
 5012.00    1.24859   1.28004   60.500
 5013.00    1.24193   1.27249   60.428
 5014.00    1.23858   1.26970   59.744
 5015.00    1.24821   1.27020   59.359
 5016.00    1.26181   1.26958   59.628
 5017.00    1.26005   1.26598   59.692
 5018.00    1.25720   1.26364   59.296
 5019.00    1.26305   1.26809   58.690
 5020.00    1.27445   1.27922   58.394
 5021.00    1.27908   1.29207   58.694
 5022.00    1.28611   1.30278   58.861
 5023.00    1.28379   1.31115   58.216
 5024.00    1.28572   1.31800   57.138
 5025.00    1.29695   1.32285   56.313
 5026.00    1.29740   1.32483   55.431
 5027.00    1.29212   1.32453   54.904
 5028.00    1.29949   1.32349   55.254
 5029.00    1.30003   1.32294   57.145
 5030.00    1.29361   1.32387   59.246
 5031.00    1.29212   1.32677   60.075
 5032.00    1.29620   1.33031   60.344
 5033.00    1.30637   1.33150   61.348
 5034.00    1.29328   1.32840   63.835
 5035.00    1.28228   1.32235   66.053
 5036.00    1.27756   1.31630   65.489
 5037.00    1.27801   1.31072   62.081
 5038.00    1.27469   1.30297   58.419
 5039.00    1.26590   1.29137   56.253
 5040.00    1.08998   1.27943   -1.000
 5041.00    0.33371   1.27471   -1.000
 5042.00    0.08161   1.28186   -1.000
 5043.00    0.16046   1.29859   -1.000
 5044.00    0.97862   1.31803   -1.000
 5045.00    1.33672   1.33365   58.327
 5046.00    1.31614   1.34168   59.054
 5047.00    1.31217   1.34099   57.663
 5048.00    1.30732   1.33274   56.268
 5049.00    1.28986   1.32027   55.336
 5050.00    1.28030   1.30808   54.882
 5051.00    1.28235   1.30150   54.763
 5052.00    1.29409   1.30472   54.873
 5053.00    1.30867   1.31690   54.953
 5054.00    1.32454   1.33200   54.866
 5055.00    1.32976   1.34395   54.550
 5056.00    1.32808   1.35083   54.717
 5057.00    1.32578   1.35425   55.630
 5058.00    1.32256   1.35635   57.350
 5059.00    1.32098   1.35805   59.169
 5060.00    1.31917   1.35912   59.551
 5061.00    1.32213   1.35840   58.749
 5062.00    1.32495   1.35452   57.980
 5063.00    1.32003   1.34726   57.801
 5064.00    1.30976   1.33865   57.503
 5065.00    1.30546   1.33195   57.275
 5066.00    1.30599   1.32879   57.767
 5067.00    1.30841   1.32840   58.002
 5068.00    1.30625   1.32929   57.297
 5069.00    1.30682   1.33070   56.928
 5070.00    1.31727   1.33205   56.870
 5071.00    1.32015   1.33248   56.941
 5072.00    1.31817   1.33175   57.789
 5073.00    1.31716   1.33059   60.004
 5074.00    1.31948   1.32978   62.482
 5075.00    1.31864   1.32903   62.721
 5076.00    1.31677   1.32661   61.327
 5077.00    1.32006   1.32053   60.113
 5078.00    1.30623   1.31152   59.253
 5079.00    1.27894   1.30375   58.141
 5080.00    1.26927   1.30132   57.265
 5081.00    1.28553   1.30433   56.942
 5082.00    1.29231   1.31027   56.831
 5083.00    1.30443   1.31744   56.511
 5084.00    1.31607   1.32533   56.117
 5085.00    1.32410   1.33297   55.815
 5086.00    1.32594   1.33899   55.450
 5087.00    1.33012   1.34305   54.826
 5088.00    1.32993   1.34619   54.547
 5089.00    1.32587   1.34948   55.216
 5090.00    1.33251   1.35304   56.405
 5091.00    1.33615   1.35661   57.659
 5092.00    1.33839   1.35984   59.026
 5093.00    1.34234   1.36198   60.031
 5094.00    1.34058   1.36163   59.815
 5095.00    1.34069   1.35751   58.227
 5096.00    1.33420   1.34969   56.788
 5097.00    1.31984   1.34015   56.513
 5098.00    1.31180   1.33244   56.966
 5099.00    1.31253   1.33013   57.728
 5100.00    1.32144   1.33397   58.453
 5101.00    1.33311   1.34144   59.173
 5102.00    1.33902   1.34858   59.729
 5103.00    1.33559   1.35240   59.541
 5104.00    1.33221   1.35155   59.138
 5105.00    1.32704   1.34591   58.612
 5106.00    1.30820   1.33696   57.781
 5107.00    1.29469   1.32833   57.078
 5108.00    1.29983   1.32349   56.424
 5109.00    1.30515   1.32396   55.969
 5110.00    1.30510   1.32942   55.607
 5111.00    1.31509   1.33853   55.036
 5112.00    1.32886   1.34890   54.728
 5113.00    1.33717   1.35806   55.045
 5114.00    1.34435   1.36465   55.814
 5115.00    1.34310   1.36908   56.680
 5116.00    1.35167   1.37227   57.746
 5117.00    1.35252   1.37419   59.319
 5118.00    1.35487   1.37404   60.789
 5119.00    1.35673   1.37118   60.922
 5120.00    1.35060   1.36553   60.405
 5121.00    1.33519   1.35755   60.103
 5122.00    1.32188   1.34840   59.852
 5123.00    1.31380   1.34023   59.920
 5124.00    1.30836   1.33515   59.676
 5125.00    1.30501   1.33317   58.807
 5126.00    1.30899   1.33233   57.927
 5127.00    1.30978   1.33117   57.454
 5128.00    1.30853   1.33039   56.913
 5129.00    1.31796   1.33186   56.504
 5130.00    1.32173   1.33638   56.668
 5131.00    1.32871   1.34262   57.829
 5132.00    1.33442   1.34866   59.130
 5133.00    1.33375   1.35336   59.831
 5134.00    1.33963   1.35604   59.717
 5135.00    1.34276   1.35581   59.413
 5136.00    1.33930   1.35189   60.034
 5137.00    1.32483   1.34485   60.681
 5138.00    1.30631   1.33734   60.094
 5139.00    1.29650   1.33272   59.271
 5140.00    1.30716   1.33241   59.300
 5141.00    1.31763   1.33493   59.776
 5142.00    1.30958   1.33847   59.665
 5143.00    1.31006   1.34266   59.006
 5144.00    1.32496   1.34720   58.978
 5145.00    1.33309   1.35085   59.847
 5146.00    1.33602   1.35275   60.765
 5147.00    1.33620   1.35295   60.941
 5148.00    1.33242   1.35152   60.363
 5149.00    1.33153   1.34802   59.067
 5150.00    1.32406   1.34248   57.549
 5151.00    1.31151   1.33657   56.194
 5152.00    1.31357   1.33312   55.336
 5153.00    1.32478   1.33391   55.064
 5154.00    1.33441   1.33951   55.125
 5155.00    1.34365   1.34904   55.355
 5156.00    1.35493   1.36005   55.767
 5157.00    1.36153   1.36956   56.477
 5158.00    1.36655   1.37564   57.727
 5159.00    1.37245   1.37786   60.699
 5160.00    1.36560   1.37684   66.213
 5161.00    1.35664   1.37340   72.533
 5162.00    1.35330   1.36741   75.421
 5163.00    1.34795   1.35607   72.786
 5164.00    1.34370   1.33421   69.444
 5165.00    1.31609   1.29922   70.173
 5166.00    1.25877   1.25709   75.019
 5167.00    1.21762   1.22255   77.630
 5168.00    1.21560   1.20766   72.425
 5169.00    1.24182   1.21170   64.980
 5170.00    1.26256   1.22181   60.581
 5171.00    1.25994   1.22775   58.889
 5172.00    1.23552   1.23336   58.440
 5173.00    1.24500   1.24941   58.553
 5174.00    1.29164   1.27942   59.605
 5175.00    1.34025   1.31462   62.416
 5176.00    1.36461   1.34353   67.841
 5177.00    1.37487   1.36097   75.136
 5178.00    1.37137   1.36735   77.899
 5179.00    1.37372   1.36364   72.192
 5180.00    1.36617   1.34834   64.542
 5181.00    1.34367   1.32037   60.169
 5182.00    1.30318   1.28621   58.832
 5183.00    1.25936   1.25988   58.450
 5184.00    1.25240   1.25497   58.492
 5185.00    1.29659   1.27181   59.547
 5186.00    1.33879   1.29746   61.422
 5187.00    1.34793   1.31848   62.410
 5188.00    1.35049   1.32936   61.651
 5189.00    1.35075   1.33192   60.614
 5190.00    1.34100   1.32912   59.728
 5191.00    1.32305   1.32367   58.745
 5192.00    1.31335   1.31923   57.608
 5193.00    1.32423   1.31879   56.803
 5194.00    1.33756   1.32212   56.493
 5195.00    1.34300   1.32734   56.622
 5196.00    1.34798   1.33317   57.290
 5197.00    1.35363   1.33961   58.446
 5198.00    1.35522   1.34692   59.964
 5199.00    1.36252   1.35375   61.866
 5200.00    1.36750   1.35752   63.206
 5201.00    1.36740   1.35566   63.401
 5202.00    1.35979   1.34703   63.763
 5203.00    1.34282   1.33288   63.698
 5204.00    1.32123   1.31735   62.311
 5205.00    1.30773   1.30557   60.062
 5206.00    1.31212   1.30024   57.647
 5207.00    1.31862   1.30050   55.763
 5208.00    1.31706   1.30465   55.257
 5209.00    1.31952   1.31315   56.185
 5210.00    1.33326   1.32662   57.325
 5211.00    1.35556   1.34254   57.582
 5212.00    1.37081   1.35630   56.782
 5213.00    1.38165   1.36306   55.651
 5214.00    1.37705   1.36174   54.971
 5215.00    1.36315   1.35608   54.636
 5216.00    1.35079   1.35243   54.751
 5217.00    1.36049   1.35545   55.841
 5218.00    1.38034   1.36470   57.804
 5219.00    1.39028   1.37610   60.338
 5220.00    1.39792   1.38518   62.779
 5221.00    1.40278   1.38901   63.345
 5222.00    1.39596   1.38562   61.052
 5223.00    1.38606   1.37351   57.898
 5224.00    1.36702   1.35278   56.058
 5225.00    1.33445   1.32804   55.445
 5226.00    1.30429   1.30912   55.834
 5227.00    1.29889   1.30558   56.972
 5228.00    1.32423   1.31794   57.560
 5229.00    1.35508   1.33718   56.935
 5230.00    1.37352   1.35152   55.558
 5231.00    1.37663   1.35497   54.492
 5232.00    1.36303   1.34978   54.119
 5233.00    1.34953   1.34364   54.175
 5234.00    1.35493   1.34382   54.256
 5235.00    1.37155   1.35188   54.061
 5236.00    1.38738   1.36442   53.884
 5237.00    1.39664   1.37622   53.911
 5238.00    1.39818   1.38427   53.800
 5239.00    1.40299   1.38859   54.157
 5240.00    1.39627   1.39064   55.532
 5241.00    1.39143   1.39175   57.135
 5242.00    1.39747   1.39257   57.989
 5243.00    1.40145   1.39311   58.070
 5244.00    1.40222   1.39258   58.282
 5245.00    1.39492   1.38950   58.416
 5246.00    1.38189   1.38359   57.898
 5247.00    1.37301   1.37657   57.162
 5248.00    1.36887   1.37057   56.832
 5249.00    1.36336   1.36665   56.701
 5250.00    1.36288   1.36534   55.905
 5251.00    1.36914   1.36649   54.475
 5252.00    1.37836   1.36888   53.388
 5253.00    1.37949   1.37116   53.344
 5254.00    1.37874   1.37345   54.265
 5255.00    1.38556   1.37743   56.119
 5256.00    1.39228   1.38432   58.658
 5257.00    1.40172   1.39208   61.170
 5258.00    1.40752   1.39671   62.913
 5259.00    1.40468   1.39455   63.721
 5260.00    1.39199   1.38427   63.322
 5261.00    1.37660   1.36759   62.154
 5262.00    1.35796   1.34854   62.037
 5263.00    1.34118   1.33111   63.966
 5264.00    1.32809   1.31872   65.094
 5265.00    1.32717   1.31247   62.656
 5266.00    1.33491   1.31026   59.240
 5267.00    1.33935   1.30713   57.548
 5268.00    1.32602   1.29982   57.294
 5269.00    1.29795   1.29280   57.278
 5270.00    1.29261   1.29444   56.727
 5271.00    1.32616   1.30804   55.231
 5272.00    1.36011   1.32717   53.669
 5273.00    1.37318   1.34264   53.260
 5274.00    1.37820   1.35128   54.040
 5275.00    1.38010   1.35668   55.431
 5276.00    1.38590   1.36444   56.701
 5277.00    1.40173   1.37556   57.399
 5278.00    1.41398   1.38580   57.027
 5279.00    1.40561   1.39020   55.555
 5280.00    1.39404   1.38701   53.809
 5281.00    1.39197   1.37867   52.666
 5282.00    1.38652   1.37007   52.613
 5283.00    1.38515   1.36675   52.795
 5284.00    1.38976   1.37176   52.642
 5285.00    1.40489   1.38406   52.406
 5286.00    1.42405   1.39834   52.486
 5287.00    1.43205   1.40956   52.895
 5288.00    1.42762   1.41604   53.492
 5289.00    1.42220   1.41866   54.535
 5290.00    1.42289   1.41895   56.320
 5291.00    1.42184   1.41791   58.234
 5292.00    1.42069   1.41612   58.913
 5293.00    1.42550   1.41345   57.957
 5294.00    1.42105   1.40895   56.618
 5295.00    1.41257   1.40157   55.891
 5296.00    1.40269   1.39212   55.412
 5297.00    1.39300   1.38363   54.343
 5298.00    1.39024   1.37959   53.054
 5299.00    1.39906   1.38096   52.476
 5300.00    1.40871   1.38562   52.666
 5301.00    1.40725   1.39127   53.182
 5302.00    1.40620   1.39709   53.272
 5303.00    1.41927   1.40296   52.793
 5304.00    1.42322   1.40802   52.329
 5305.00    1.41778   1.41089   52.181
 5306.00    1.41624   1.41150   52.359
 5307.00    1.41820   1.41145   52.633
 5308.00    1.42467   1.41244   52.929
 5309.00    1.43133   1.41479   53.385
 5310.00    1.43150   1.41708   53.896
 5311.00    1.42798   1.41769   54.158
 5312.00    1.42789   1.41566   53.960
 5313.00    1.42633   1.41043   53.622
 5314.00    1.42435   1.40220   53.600
 5315.00    1.41788   1.39303   53.900
 5316.00    1.40701   1.38678   54.407
 5317.00    1.40892   1.38706   55.206
 5318.00    1.42244   1.39334   55.975
 5319.00    1.42848   1.40153   56.218
 5320.00    1.42461   1.40671   56.908
 5321.00    1.41966   1.40585   59.522
 5322.00    1.41136   1.39909   62.564
 5323.00    1.39840   1.38899   62.320
 5324.00    1.39421   1.37821   59.086
 5325.00    1.40028   1.36624   56.299
 5326.00    1.39362   1.35136   55.140
 5327.00    1.35976   1.33646   54.629
 5328.00    1.33406   1.32953   54.050
 5329.00    1.35558   1.33746   53.607
 5330.00    1.38968   1.35691   53.672
 5331.00    1.41105   1.37801   54.042
 5332.00    1.41877   1.39290   54.509
 5333.00    1.41706   1.39964   55.498
 5334.00    1.41828   1.40065   56.731
 5335.00    1.42704   1.39878   56.984
 5336.00    1.43144   1.39588   55.918
 5337.00    1.41526   1.39245   54.618
 5338.00    1.40883   1.38825   54.143
 5339.00    1.40979   1.38377   54.355
 5340.00    1.39752   1.38131   54.721
 5341.00    1.40148   1.38375   55.031
 5342.00    1.41645   1.39046   55.412
 5343.00    1.42502   1.39764   55.739
 5344.00    1.43295   1.40177   55.352
 5345.00    1.42977   1.40181   54.235
 5346.00    1.42302   1.39940   53.254
 5347.00    1.42386   1.39694   52.865
 5348.00    1.41975   1.39592   52.588
 5349.00    1.41813   1.39768   52.029
 5350.00    1.42314   1.40251   51.493
 5351.00    1.43154   1.40891   51.338
 5352.00    1.44058   1.41524   51.418
 5353.00    1.44026   1.42059   51.554
 5354.00    1.43887   1.42521   51.961
 5355.00    1.44429   1.42936   52.725
 5356.00    1.44789   1.43250   53.565
 5357.00    1.45122   1.43414   54.134
 5358.00    1.45182   1.43378   54.464
 5359.00    1.44849   1.43108   54.785
 5360.00    1.44601   1.42603   54.856
 5361.00    1.43991   1.41912   54.753
 5362.00    1.43262   1.41190   55.051
 5363.00    1.42726   1.40599   56.059
 5364.00    1.42404   1.40243   57.656
 5365.00    1.42318   1.40125   58.595
 5366.00    1.42324   1.40084   57.457
 5367.00    1.42523   1.39870   54.967
 5368.00    1.42205   1.39268   53.051
 5369.00    1.40649   1.38296   52.282
 5370.00    1.38908   1.37346   52.216
 5371.00    1.38448   1.37054   52.320
 5372.00    1.39849   1.37812   52.378
 5373.00    1.42458   1.39330   52.593
 5374.00    1.44605   1.40976   53.023
 5375.00    1.45598   1.42185   53.557
 5376.00    1.45719   1.42807   53.941
 5377.00    1.45757   1.42985   54.031
 5378.00    1.45541   1.42850   53.864
 5379.00    1.44927   1.42483   53.422
 5380.00    1.44539   1.41985   53.090
 5381.00    1.43914   1.41520   53.195
 5382.00    1.43056   1.41283   53.600
 5383.00    1.43171   1.41359   54.297
 5384.00    1.44243   1.41733   55.020
 5385.00    1.45446   1.42271   55.423
 5386.00    1.45888   1.42743   55.534
 5387.00    1.45394   1.42949   55.632
 5388.00    1.45130   1.42807   55.945
 5389.00    1.45319   1.42369   56.551
 5390.00    1.45383   1.41805   57.536
 5391.00    1.44696   1.41241   58.091
 5392.00    1.43749   1.40757   57.078
 5393.00    1.43426   1.40319   55.344
 5394.00    1.43045   1.39790   54.469
 5395.00    1.41743   1.39067   54.434
 5396.00    1.40104   1.38337   54.737
 5397.00    1.39912   1.38101   55.878
 5398.00    1.41028   1.38587   57.705
 5399.00    1.42378   1.39549   59.017
 5400.00    1.43496   1.40435   58.989
 5401.00    1.44025   1.40764   57.938
 5402.00    1.44067   1.40321   57.106
 5403.00    1.42404   1.39230   57.214
 5404.00    1.40063   1.37946   57.307
 5405.00    1.39188   1.37080   56.270
 5406.00    1.39788   1.37023   54.836
 5407.00    1.41373   1.37541   53.979
 5408.00    1.42262   1.38146   53.788
 5409.00    1.41571   1.38550   53.839
 5410.00    1.41368   1.38901   53.610
 5411.00    1.42731   1.39429   53.226
 5412.00    1.43891   1.40026   53.217
 5413.00    1.43535   1.40505   53.642
 5414.00    1.43011   1.40822   54.063
 5415.00    1.42887   1.41109   54.057
 5416.00    1.43938   1.41488   53.818
 5417.00    1.44548   1.41884   54.176
 5418.00    1.44490   1.42184   54.822
 5419.00    1.44693   1.42342   54.662
 5420.00    1.44153   1.42336   53.829
 5421.00    1.44258   1.42153   53.550
 5422.00    1.44422   1.41828   54.545
 5423.00    1.43855   1.41463   56.256
 5424.00    1.43261   1.41291   57.048
 5425.00    1.43719   1.41427   56.397
 5426.00    1.44862   1.41648   55.938
 5427.00    1.44859   1.41566   56.453
 5428.00    1.43253   1.41005   57.199
 5429.00    1.40625   1.40336   57.323
 5430.00    1.40379   1.39984   56.508
 5431.00    1.42252   1.39928   55.079
 5432.00    1.42590   1.39890   53.769
 5433.00    1.41684   1.39668   52.887
 5434.00    1.40882   1.39559   52.344
 5435.00    1.41183   1.39981   52.132
 5436.00    1.42671   1.40968   52.109
 5437.00    1.44221   1.42234   52.449
 5438.00    1.45425   1.43355   53.546
 5439.00    1.46189   1.44129   55.494
 5440.00    1.46434   1.44551   57.543
 5441.00    1.46448   1.44658   57.981
 5442.00    1.46400   1.44401   56.557
 5443.00    1.45777   1.43643   54.837
 5444.00    1.44081   1.42354   53.948
 5445.00    1.41568   1.40788   53.797
 5446.00    1.39604   1.39579   54.106
 5447.00    1.39755   1.39297   55.086
 5448.00    1.42022   1.40010   56.595
 5449.00    1.45045   1.41254   57.988
 5450.00    1.46740   1.42362   -1.000
 5451.00    1.46626   1.42857   56.231
 5452.00    1.45831   1.42573   54.505
 5453.00    1.44581   1.41640   53.785
 5454.00    1.42452   1.40477   54.119
 5455.00    1.41115   1.39782   55.035
 5456.00    1.41285   1.40023   55.901
 5457.00    1.43602   1.41151   56.358
 5458.00    1.46063   1.42534   56.000
 5459.00    1.46643   1.43549   55.294
 5460.00    1.46017   1.43901   54.901
 5461.00    1.45599   1.43674   54.426
 5462.00    1.45689   1.43190   54.049
 5463.00    1.45297   1.42832   54.314
 5464.00    1.44975   1.42812   54.891
 5465.00    1.45756   1.43080   55.219
 5466.00    1.46394   1.43476   55.457
 5467.00    1.47034   1.43853   55.932
 5468.00    1.47396   1.44147   56.662
 5469.00    1.47092   1.44332   57.744
 5470.00    1.46531   1.44325   58.780
 5471.00    1.46214   1.44102   58.727
 5472.00    1.46009   1.43665   57.296
 5473.00    1.45147   1.43013   55.940
 5474.00    1.44633   1.42142   55.885
 5475.00    1.43702   1.41201   56.544
 5476.00    1.42447   1.40530   56.715
 5477.00    1.42688   1.40545   55.984
 5478.00    1.44251   1.41210   54.861
 5479.00    1.45163   1.42080   54.164
 5480.00    1.45530   1.42752   54.381
 5481.00    1.45210   1.43125   55.117
 5482.00    1.43978   1.43390   55.602
 5483.00    1.44704   1.43740   55.697
 5484.00    1.46356   1.44140   55.425
 5485.00    1.46924   1.44430   55.011
 5486.00    1.46842   1.44479   54.744
 5487.00    1.46509   1.44331   54.768
 5488.00    1.46229   1.44131   54.833
 5489.00    1.45713   1.44029   54.829
 5490.00    1.45963   1.44086   55.100
 5491.00    1.46304   1.44264   55.509
 5492.00    1.46314   1.44429   55.426
 5493.00    1.46677   1.44460   54.874
 5494.00    1.46653   1.44271   54.968
 5495.00    1.46257   1.43866   55.756
 5496.00    1.45267   1.43356   56.118
 5497.00    1.43891   1.42978   55.796
 5498.00    1.44060   1.42861   55.556
 5499.00    1.45246   1.42852   56.055
 5500.00    1.44616   1.42774   56.707
 5501.00    1.43434   1.42629   56.506
 5502.00    1.43976   1.42578   55.675
 5503.00    1.45253   1.42671   55.225
 5504.00    1.45854   1.42665   55.431
 5505.00    1.45143   1.42432   56.322
 5506.00    1.43506   1.42151   57.334
 5507.00    1.43958   1.42126   57.968
 5508.00    1.45327   1.42497   57.621
 5509.00    1.46657   1.42973   56.665
 5510.00    1.46873   1.43247   55.759
 5511.00    1.46374   1.43235   54.773
 5512.00    1.45720   1.43079   53.821
 5513.00    1.45360   1.43025   53.469
 5514.00    1.45707   1.43198   53.513
 5515.00    1.46390   1.43609   53.618
 5516.00    1.46948   1.44168   53.783
 5517.00    1.47229   1.44751   53.905
 5518.00    1.47424   1.45222   54.160
 5519.00    1.47327   1.45508   54.788
 5520.00    1.47460   1.45602   55.920
 5521.00    1.47618   1.45587   57.344
 5522.00    1.47227   1.45491   58.003
 5523.00    1.47412   1.45201   57.147
 5524.00    1.47913   1.44572   55.659
 5525.00    1.46919   1.43497   54.722
 5526.00    1.44776   1.42237   54.629
 5527.00    1.42662   1.41271   55.057
 5528.00    1.42153   1.41074   55.407
 5529.00    1.43622   1.41712   55.335
 5530.00    1.45565   1.42753   54.937
 5531.00    1.46711   1.43619   54.708
 5532.00    1.46746   1.43944   54.508
 5533.00    1.46644   1.43817   54.048
 5534.00    1.46823   1.43604   53.584
 5535.00    1.46453   1.43688   53.492
 5536.00    1.46537   1.44117   53.919
 5537.00    1.47498   1.44714   54.486
 5538.00    1.47304   1.45260   54.734
 5539.00    1.47456   1.45624   54.645
 5540.00    1.47805   1.45791   54.506
 5541.00    1.47798   1.45779   54.220
 5542.00    1.47637   1.45632   53.724
 5543.00    1.47451   1.45451   53.247
 5544.00    1.47400   1.45350   53.044
 5545.00    1.47320   1.45402   53.234
 5546.00    1.47034   1.45600   53.666
 5547.00    1.47738   1.45914   54.252
 5548.00    1.48156   1.46262   54.609
 5549.00    1.48463   1.46530   54.603
 5550.00    1.48619   1.46634   54.443
 5551.00    1.48992   1.46581   54.328
 5552.00    1.49135   1.46462   54.257
 5553.00    1.48616   1.46334   54.196
 5554.00    1.48018   1.46261   54.270
 5555.00    1.48002   1.46254   54.516
 5556.00    1.48516   1.46307   55.012
 5557.00    1.48744   1.46378   55.448
 5558.00    1.48602   1.46426   55.655
 5559.00    1.48736   1.46438   55.773
 5560.00    1.48485   1.46373   55.843
 5561.00    1.48830   1.46214   55.765
 5562.00    1.48573   1.46017   55.642
 5563.00    1.47819   1.45845   55.740
 5564.00    1.47293   1.45725   55.754
 5565.00    1.47181   1.45598   55.743
 5566.00    1.46957   1.45416   55.873
 5567.00    1.46329   1.45184   55.730
 5568.00    1.43004   1.44915   55.200
 5569.00    1.30885   1.44680   -1.000
 5570.00    1.23349   1.44463   -1.000
 5571.00    1.30010   1.44227   -1.000
 5572.00    1.60900   1.44098   -1.000
 5573.00    1.83201   1.44167   -1.000
 5574.00    1.65857   1.44455   -1.000
 5575.00    1.48576   1.44875   -1.000
 5576.00    1.47640   1.45303   55.155
 5577.00    1.47319   1.45671   54.933
 5578.00    1.47626   1.45936   55.169
 5579.00    1.48277   1.46080   56.217
 5580.00    1.48038   1.46066   57.636
 5581.00    1.47617   1.45974   58.971
 5582.00    1.47624   1.45830   59.601
 5583.00    1.48220   1.45562   59.114
 5584.00    1.47730   1.44992   58.090
 5585.00    1.46274   1.44053   57.218
 5586.00    1.44907   1.42962   56.922
 5587.00    1.43721   1.42080   57.086
 5588.00    1.43698   1.41745   56.868
 5589.00    1.43940   1.42007   56.124
 5590.00    1.45299   1.42697   55.577
 5591.00    1.46693   1.43433   55.917
 5592.00    1.47098   1.43961   56.836
 5593.00    1.46323   1.44246   57.530
 5594.00    1.45570   1.44448   57.608
 5595.00    1.46820   1.44669   57.850
 5596.00    1.47667   1.44770   58.151
 5597.00    1.47127   1.44638   57.427
 5598.00    1.46510   1.44321   55.934
 5599.00    1.45614   1.43925   54.593
 5600.00    1.45213   1.43549   53.837
 5601.00    1.45521   1.43372   53.636
 5602.00    1.45511   1.43594   53.693
 5603.00    1.46328   1.44294   53.802
 5604.00    1.47759   1.45324   53.778
 5605.00    1.49087   1.46359   53.625
 5606.00    1.50281   1.47149   53.802
 5607.00    1.50408   1.47627   54.774
 5608.00    1.50248   1.47877   56.572
 5609.00    1.49541   1.48004   58.026
 5610.00    1.49699   1.48029   57.852
 5611.00    1.50019   1.47830   56.573
 5612.00    1.49481   1.47242   55.675
 5613.00    1.48803   1.46271   55.451
 5614.00    1.46831   1.45192   55.233
 5615.00    1.45271   1.44585   54.956
 5616.00    1.45823   1.44713   55.107
 5617.00    1.47374   1.45438   56.073
 5618.00    1.48917   1.46289   57.148
 5619.00    1.49408   1.46919   57.112
 5620.00    1.49540   1.47228   56.228
 5621.00    1.49585   1.47267   55.379
 5622.00    1.48904   1.47084   54.716
 5623.00    1.48243   1.46790   54.278
 5624.00    1.47970   1.46552   54.092
 5625.00    1.48221   1.46546   53.888
 5626.00    1.48843   1.46800   53.901
 5627.00    1.49483   1.47178   54.276
 5628.00    1.50054   1.47554   54.680
 5629.00    1.50124   1.47826   55.030
 5630.00    1.50432   1.47968   55.427
 5631.00    1.50365   1.47993   55.810
 5632.00    1.49753   1.47916   55.869
 5633.00    1.49547   1.47805   55.811
 5634.00    1.49231   1.47693   55.965
 5635.00    1.49931   1.47561   56.024
 5636.00    1.49173   1.47399   55.830
 5637.00    1.48714   1.47210   55.570
 5638.00    1.49326   1.47011   55.459
 5639.00    1.48937   1.46823   55.113
 5640.00    1.48893   1.46682   54.921
 5641.00    1.48454   1.46653   54.781
 5642.00    1.48767   1.46770   54.692
 5643.00    1.49171   1.46991   54.800
 5644.00    1.49920   1.47239   54.818
 5645.00    1.49947   1.47452   54.432
 5646.00    1.49730   1.47597   54.242
 5647.00    1.49807   1.47689   54.414
 5648.00    1.49266   1.47734   54.831
 5649.00    1.49130   1.47747   55.353
 5650.00    1.49770   1.47769   56.357
 5651.00    1.49947   1.47803   58.034
 5652.00    1.50268   1.47816   59.096
 5653.00    1.49750   1.47717   58.439
 5654.00    1.49452   1.47367   57.174
 5655.00    1.48813   1.46671   56.829
 5656.00    1.48093   1.45677   56.907
 5657.00    1.46591   1.44744   56.355
 5658.00    1.45226   1.44296   55.557
 5659.00    1.45646   1.44462   55.271
 5660.00    1.46747   1.45029   55.520
 5661.00    1.47043   1.45646   55.858
 5662.00    1.47388   1.46209   55.955
 5663.00    1.47762   1.46743   55.829
 5664.00    1.48822   1.47147   55.485
 5665.00    1.50091   1.47274   55.010
 5666.00    1.49656   1.47096   54.462
 5667.00    1.48552   1.46798   53.934
 5668.00    1.48476   1.46657   53.896
 5669.00    1.48876   1.46790   54.069
 5670.00    1.49269   1.47141   53.933
 5671.00    1.49830   1.47567   53.834
 5672.00    1.50272   1.47942   54.078
 5673.00    1.51152   1.48217   54.309
 5674.00    1.51412   1.48401   54.621
 5675.00    1.50465   1.48529   55.236
 5676.00    1.50336   1.48617   55.899
 5677.00    1.50628   1.48635   56.071
 5678.00    1.50274   1.48538   55.773
 5679.00    1.50302   1.48298   55.512
 5680.00    1.49761   1.47902   55.736
 5681.00    1.50121   1.47399   56.374
 5682.00    1.50028   1.46903   56.603
 5683.00    1.49238   1.46585   56.023
 5684.00    1.48760   1.46529   55.003
 5685.00    1.49095   1.46675   54.442
 5686.00    1.49141   1.46862   54.089
 5687.00    1.48652   1.46987   53.975
 5688.00    1.49133   1.47077   54.033
 5689.00    1.49746   1.47227   54.078
 5690.00    1.49988   1.47499   54.225
 5691.00    1.50048   1.47860   54.740
 5692.00    1.50261   1.48220   55.376
 5693.00    1.50769   1.48498   55.875
 5694.00    1.51116   1.48660   56.470
 5695.00    1.50994   1.48711   56.751
 5696.00    1.50330   1.48661   56.364
 5697.00    1.49837   1.48496   55.774
 5698.00    1.49172   1.48207   55.612
 5699.00    1.48203   1.47846   55.964
 5700.00    1.47965   1.47521   56.742
 5701.00    1.48548   1.47349   57.796
 5702.00    1.48865   1.47377   58.711
 5703.00    1.49722   1.47521   59.079
 5704.00    1.50623   1.47594   58.957
 5705.00    1.49805   1.47455   58.368
 5706.00    1.49214   1.47042   57.184
 5707.00    1.48545   1.46429   55.769
 5708.00    1.47406   1.45790   54.891
 5709.00    1.46782   1.45358   54.671
 5710.00    1.46826   1.45312   54.554
 5711.00    1.47670   1.45703   54.384
 5712.00    1.48677   1.46376   54.119
 5713.00    1.49229   1.47110   53.770
 5714.00    1.50382   1.47723   53.515
 5715.00    1.50968   1.48178   53.383
 5716.00    1.51184   1.48508   53.300
 5717.00    1.51273   1.48753   53.236
 5718.00    1.50994   1.48951   53.358
 5719.00    1.51661   1.49124   53.802
 5720.00    1.52096   1.49275   54.373
 5721.00    1.51740   1.49396   54.810
 5722.00    1.51671   1.49479   54.532
 5723.00    1.52583   1.49498   -1.000
 5724.00    1.52083   1.49424   54.339
 5725.00    1.51376   1.49231   54.618
 5726.00    1.50946   1.48978   54.422
 5727.00    1.50742   1.48766   53.892
 5728.00    1.51043   1.48672   53.547
 5729.00    1.51551   1.48711   53.590
 5730.00    1.51526   1.48834   53.655
 5731.00    1.51359   1.48996   53.817
 5732.00    1.51014   1.49179   53.858
 5733.00    1.51353   1.49391   53.976
 5734.00    1.51884   1.49577   54.056
 5735.00    1.51722   1.49684   54.179
 5736.00    1.51733   1.49720   54.051
 5737.00    1.51748   1.49706   54.000
 5738.00    1.51684   1.49696   53.600
 5739.00    1.51351   1.49703   53.311
 5740.00    1.50779   1.49728   53.602
 5741.00    1.50543   1.49749   54.141
 5742.00    1.51066   1.49771   54.347
 5743.00    1.52153   1.49803   54.025
 5744.00    1.52427   1.49834   53.859
 5745.00    1.52430   1.49831   54.287
 5746.00    1.52176   1.49793   54.954
 5747.00    1.51706   1.49753   55.504
 5748.00    1.51780   1.49769   55.489
 5749.00    1.51650   1.49802   54.772
 5750.00    1.52340   1.49749   53.747
 5751.00    1.52566   1.49551   53.115
 5752.00    1.51768   1.49256   53.288
 5753.00    1.50682   1.49063   53.894
 5754.00    1.50718   1.49127   54.605
 5755.00    1.51289   1.49470   55.354
 5756.00    1.52343   1.49938   55.623
 5757.00    1.52536   1.50346   55.008
 5758.00    1.52203   1.50519   54.015
 5759.00    1.52273   1.50408   53.360
 5760.00    1.52106   1.50091   53.203
 5761.00    1.50575   1.49755   53.150
 5762.00    1.50042   1.49606   53.059
 5763.00    1.50824   1.49754   53.173
 5764.00    1.52121   1.50115   53.350
 5765.00    1.52391   1.50481   53.652
 5766.00    1.51789   1.50717   53.987
 5767.00    1.52153   1.50785   54.116
 5768.00    1.52262   1.50753   54.181
 5769.00    1.51878   1.50672   54.062
 5770.00    1.51448   1.50575   53.785
 5771.00    1.50810   1.50464   53.741
 5772.00    1.49450   1.50321   53.918
 5773.00    1.47506   1.50143   54.726
 5774.00    1.46454   1.49938   55.983
 5775.00    1.47700   1.49759   56.693
 5776.00    1.49677   1.49602   56.567
 5777.00    1.51042   1.49398   56.344
 5778.00    1.52071   1.49109   -1.000
 5779.00    1.52546   1.48749   -1.000
 5780.00    1.51683   1.48408   -1.000
 5781.00    1.51926   1.48176   -1.000
 5782.00    1.52345   1.48110   -1.000
 5783.00    1.51943   1.48192   -1.000
 5784.00    1.52382   1.48369   -1.000
 5785.00    1.52764   1.48580   -1.000
 5786.00    1.52585   1.48803   -1.000
 5787.00    1.53602   1.49020   -1.000
 5788.00    1.52583   1.49227   -1.000
 5789.00    1.50707   1.49407   53.207
 5790.00    1.50770   1.49565   53.542
 5791.00    1.51049   1.49756   53.886
 5792.00    1.52124   1.50018   53.600
 5793.00    1.53560   1.50341   -1.000
 5794.00    1.53405   1.50625   52.166
 5795.00    1.53336   1.50776   52.075
 5796.00    1.54562   1.50786   -1.000
 5797.00    1.53956   1.50760   -1.000
 5798.00    1.53903   1.50816   -1.000
 5799.00    1.54235   1.50980   -1.000
 5800.00    1.53959   1.51191   -1.000
 5801.00    1.54170   1.51357   -1.000
 5802.00    1.53810   1.51429   53.104
 5803.00    1.53074   1.51412   53.111
 5804.00    1.53365   1.51393   53.055
 5805.00    1.53882   1.51428   52.845
 5806.00    1.54251   1.51541   52.694
 5807.00    1.54039   1.51686   52.815
 5808.00    1.54161   1.51811   53.278
 5809.00    1.53856   1.51896   53.507
 5810.00    1.54357   1.51947   53.200
 5811.00    1.55255   1.51960   -1.000
 5812.00    1.55145   1.51920   -1.000
 5813.00    1.54838   1.51806   -1.000
 5814.00    1.54390   1.51669   52.121
 5815.00    1.54251   1.51579   52.224
 5816.00    1.55406   1.51617   -1.000
 5817.00    1.55651   1.51775   -1.000
 5818.00    1.54759   1.51987   52.226
 5819.00    1.54768   1.52181   52.125
 5820.00    1.54955   1.52317   52.080
 5821.00    1.54829   1.52400   52.099
 5822.00    1.55429   1.52437   -1.000
 5823.00    1.55613   1.52459   -1.000
 5824.00    1.54938   1.52483   52.116
 5825.00    1.54639   1.52542   52.033
 5826.00    1.54745   1.52636   52.156
 5827.00    1.55646   1.52749   -1.000
 5828.00    1.55550   1.52858   52.586
 5829.00    1.55550   1.52926   52.390
 5830.00    1.56533   1.52935   -1.000
 5831.00    1.56412   1.52886   -1.000
 5832.00    1.55180   1.52784   52.603
 5833.00    1.55297   1.52676   52.408
 5834.00    1.55248   1.52596   52.001
 5835.00    1.54385   1.52598   51.744
 5836.00    1.55616   1.52683   51.783
 5837.00    1.55203   1.52839   51.969
 5838.00    1.54737   1.53015   52.173
 5839.00    1.54159   1.53160   52.540
 5840.00    1.54662   1.53215   52.789
 5841.00    1.55574   1.53172   53.053
 5842.00    1.55959   1.53025   -1.000
 5843.00    1.54814   1.52820   53.065
 5844.00    1.54733   1.52590   53.391
 5845.00    1.54998   1.52386   53.726
 5846.00    1.55985   1.52231   -1.000
 5847.00    1.56492   1.52117   -1.000
 5848.00    1.55373   1.51996   -1.000
 5849.00    1.55401   1.51796   -1.000
 5850.00    1.55522   1.51470   -1.000
 5851.00    1.54540   1.51019   -1.000
 5852.00    1.53820   1.50535   -1.000
 5853.00    1.53645   1.50128   -1.000
 5854.00    1.53684   1.49824   -1.000
 5855.00    1.53850   1.49548   -1.000
 5856.00    1.53137   1.49267   -1.000
 5857.00    1.52866   1.49106   -1.000
 5858.00    1.54014   1.49195   -1.000
 5859.00    1.54593   1.49571   -1.000
 5860.00    1.55427   1.50076   -1.000
 5861.00    1.55302   1.50549   -1.000
 5862.00    1.55289   1.50883   -1.000
 5863.00    1.55077   1.51049   -1.000
 5864.00    1.54952   1.51057   -1.000
 5865.00    1.54400   1.50970   -1.000
 5866.00    1.54869   1.50901   -1.000
 5867.00    1.55034   1.50960   -1.000
 5868.00    1.55457   1.51148   -1.000
 5869.00    1.56675   1.51388   -1.000
 5870.00    1.56416   1.51556   -1.000
 5871.00    1.55454   1.51575   -1.000
 5872.00    1.54943   1.51427   -1.000
 5873.00    1.54954   1.51164   -1.000
 5874.00    1.55575   1.50867   -1.000
 5875.00    1.55217   1.50616   -1.000
 5876.00    1.54066   1.50448   -1.000
 5877.00    1.53756   1.50313   -1.000
 5878.00    1.53374   1.50164   -1.000
 5879.00    1.51721   1.49970   54.703
 5880.00    1.48284   1.49741   55.451
 5881.00    1.41123   1.49464   -1.000
 5882.00    1.29542   1.49112   -1.000
 5883.00    1.19618   1.48663   -1.000
 5884.00    1.22263   1.48038   -1.000
 5885.00    1.35285   1.47024   -1.000
 5886.00    1.44845   1.45272   61.461
 5887.00    1.42934   1.42699   60.523
 5888.00    1.33415   1.39787   -1.000
 5889.00    1.23232   1.37666   -1.000
 5890.00    1.23494   1.37090   -1.000
 5891.00    1.35235   1.37938   60.769
 5892.00    1.45135   1.39120   -1.000
 5893.00    1.47888   1.39618   -1.000
 5894.00    1.46218   1.39277   -1.000
 5895.00    1.44598   1.38826   -1.000
 5896.00    1.44426   1.39212   -1.000
 5897.00    1.47542   1.40607   -1.000
 5898.00    1.51409   1.42605   -1.000
 5899.00    1.54058   1.44567   -1.000
 5900.00    1.53880   1.46167   -1.000
 5901.00    1.54107   1.47356   -1.000
 5902.00    1.54291   1.48207   -1.000
 5903.00    1.53343   1.48796   -1.000
 5904.00    1.54112   1.49188   -1.000
 5905.00    1.54023   1.49440   -1.000
 5906.00    1.54165   1.49600   -1.000
 5907.00    1.54558   1.49715   -1.000
 5908.00    1.54506   1.49806   -1.000
 5909.00    1.54328   1.49855   -1.000
 5910.00    1.54717   1.49806   -1.000
 5911.00    1.53478   1.49618   -1.000
 5912.00    1.51713   1.49285   55.230
 5913.00    1.51492   1.48883   55.115
 5914.00    1.52334   1.48523   -1.000
 5915.00    1.52548   1.48317   -1.000
 5916.00    1.52675   1.48299   -1.000
 5917.00    1.52946   1.48461   -1.000
 5918.00    1.52859   1.48729   -1.000
 5919.00    1.53039   1.49013   -1.000
 5920.00    1.54643   1.49241   -1.000
 5921.00    1.55491   1.49403   -1.000
 5922.00    1.55042   1.49534   -1.000
 5923.00    1.54604   1.49696   -1.000
 5924.00    1.54771   1.49912   -1.000
 5925.00    1.54631   1.50140   -1.000
 5926.00    1.54705   1.50306   -1.000
 5927.00    1.55531   1.50335   -1.000
 5928.00    1.54814   1.50236   -1.000
 5929.00    1.54642   1.50106   -1.000
 5930.00    1.54938   1.50055   -1.000
 5931.00    1.54780   1.50100   -1.000
 5932.00    1.54728   1.50188   -1.000
 5933.00    1.53845   1.50230   -1.000
 5934.00    1.53484   1.50230   -1.000
 5935.00    1.52750   1.50227   55.501
 5936.00    1.52065   1.50245   55.395
 5937.00    1.53043   1.50227   -1.000
 5938.00    1.53624   1.50106   -1.000
 5939.00    1.53722   1.49874   -1.000
 5940.00    1.53609   1.49621   -1.000
 5941.00    1.53414   1.49434   -1.000
 5942.00    1.53450   1.49373   -1.000
 5943.00    1.53654   1.49448   -1.000
 5944.00    1.54391   1.49593   -1.000
 5945.00    1.55038   1.49718   -1.000
 5946.00    1.55312   1.49760   -1.000
 5947.00    1.55261   1.49751   -1.000
 5948.00    1.54414   1.49787   -1.000
 5949.00    1.54211   1.49919   -1.000
 5950.00    1.54228   1.50100   -1.000
 5951.00    1.53868   1.50276   -1.000
 5952.00    1.54191   1.50374   -1.000
 5953.00    1.53776   1.50380   -1.000
 5954.00    1.54269   1.50277   -1.000
 5955.00    1.55697   1.50127   -1.000
 5956.00    1.54694   1.50029   -1.000
 5957.00    1.53567   1.50075   -1.000
 5958.00    1.54254   1.50288   -1.000
 5959.00    1.55161   1.50600   -1.000
 5960.00    1.54520   1.50921   -1.000
 5961.00    1.54468   1.51161   -1.000
 5962.00    1.54245   1.51260   -1.000
 5963.00    1.54286   1.51205   -1.000
 5964.00    1.55059   1.51041   -1.000
 5965.00    1.55863   1.50860   -1.000
 5966.00    1.55508   1.50756   -1.000
 5967.00    1.55886   1.50768   -1.000
 5968.00    1.56036   1.50885   -1.000
 5969.00    1.55169   1.51053   -1.000
 5970.00    1.54281   1.51218   -1.000
 5971.00    1.54592   1.51332   -1.000
 5972.00    1.55133   1.51360   -1.000
 5973.00    1.55926   1.51299   -1.000
 5974.00    1.56204   1.51143   -1.000
 5975.00    1.56006   1.50935   -1.000
 5976.00    1.55399   1.50752   -1.000
 5977.00    1.54144   1.50669   -1.000
 5978.00    1.54989   1.50745   -1.000
 5979.00    1.56153   1.50908   -1.000
 5980.00    1.55888   1.51057   -1.000
 5981.00    1.55286   1.51075   -1.000
 5982.00    1.54867   1.50958   -1.000
 5983.00    1.54688   1.50792   -1.000
 5984.00    1.54560   1.50696   -1.000
 5985.00    1.54403   1.50732   -1.000
 5986.00    1.54659   1.50867   -1.000
 5987.00    1.54958   1.51026   -1.000
 5988.00    1.54956   1.51139   -1.000
 5989.00    1.54929   1.51199   -1.000
 5990.00    1.55270   1.51260   -1.000
 5991.00    1.55553   1.51403   -1.000
 5992.00    1.55469   1.51658   -1.000
 5993.00    1.55608   1.51959   -1.000
 5994.00    1.56023   1.52189   -1.000
 5995.00    1.55764   1.52266   -1.000
 5996.00    1.55772   1.52215   -1.000
 5997.00    1.56123   1.52112   -1.000
 5998.00    1.56043   1.52034   -1.000
 5999.00    1.56220   1.51971   -1.000
 6000.00    1.55560   1.51896   -1.000
 6001.00    1.54774   1.51789   -1.000
 6002.00    1.54681   1.51669   -1.000
 6003.00    1.54329   1.51551   -1.000
 6004.00    1.54702   1.51409   -1.000
 6005.00    1.55369   1.51227   -1.000
 6006.00    1.55451   1.51027   -1.000
 6007.00    1.54567   1.50906   -1.000
 6008.00    1.54082   1.50948   -1.000
 6009.00    1.54833   1.51149   -1.000
 6010.00    1.55396   1.51398   -1.000
 6011.00    1.55189   1.51595   -1.000
 6012.00    1.56520   1.51706   -1.000
 6013.00    1.56728   1.51779   -1.000
 6014.00    1.56074   1.51839   -1.000
 6015.00    1.56241   1.51858   -1.000
 6016.00    1.55960   1.51809   -1.000
 6017.00    1.56317   1.51681   -1.000
 6018.00    1.56589   1.51521   -1.000
 6019.00    1.55976   1.51383   -1.000
 6020.00    1.55197   1.51297   -1.000
 6021.00    1.55280   1.51280   -1.000
 6022.00    1.55930   1.51337   -1.000
 6023.00    1.54878   1.51486   -1.000
 6024.00    1.54510   1.51720   -1.000
 6025.00    1.55046   1.52004   -1.000
 6026.00    1.55632   1.52283   -1.000
 6027.00    1.55380   1.52516   -1.000
 6028.00    1.56153   1.52688   -1.000
 6029.00    1.56329   1.52806   -1.000
 6030.00    1.55849   1.52891   -1.000
 6031.00    1.56294   1.52961   -1.000
 6032.00    1.56069   1.53042   -1.000
 6033.00    1.56399   1.53141   -1.000
 6034.00    1.56672   1.53247   -1.000
 6035.00    1.57073   1.53298   -1.000
 6036.00    1.56932   1.53237   -1.000
 6037.00    1.56848   1.53059   -1.000
 6038.00    1.56925   1.52802   -1.000
 6039.00    1.57049   1.52491   -1.000
 6040.00    1.56517   1.52127   -1.000
 6041.00    1.55753   1.51714   -1.000
 6042.00    1.56027   1.51415   -1.000
 6043.00    1.56477   1.51492   -1.000
 6044.00    1.56221   1.51943   -1.000
 6045.00    1.56881   1.52595   -1.000
 6046.00    1.57236   1.53106   -1.000
 6047.00    1.57129   1.53348   -1.000
 6048.00    1.57274   1.53355   -1.000
 6049.00    1.57326   1.53263   -1.000
 6050.00    1.57135   1.53178   -1.000
 6051.00    1.56664   1.53133   -1.000
 6052.00    1.56487   1.53118   -1.000
 6053.00    1.56205   1.53065   -1.000
 6054.00    1.55896   1.52969   -1.000
 6055.00    1.54992   1.52836   -1.000
 6056.00    1.53253   1.52719   55.675
 6057.00    1.52761   1.52649   56.110
 6058.00    1.40959   1.52643   -1.000
 6059.00    1.43493   1.52662   48.665
 6060.00    1.50832   1.52615   18.912
 6061.00    1.54489   1.52419   -1.000
 6062.00    1.58995   1.52037   -1.000
 6063.00    1.45858   1.51587   54.202
 6064.00    0.66759   1.51259   -1.000
 6065.00    0.95485   1.51244   -1.000
 6066.00    1.62063   1.51574   -1.000
 6067.00    1.54112   1.52113   53.930
 6068.00    1.56060   1.52661   -1.000
 6069.00    1.56239   1.53090   -1.000
 6070.00    1.56811   1.53372   -1.000
 6071.00    1.57027   1.53556   -1.000
 6072.00    1.56608   1.53661   -1.000
 6073.00    1.56952   1.53687   -1.000
 6074.00    1.56795   1.53621   -1.000
 6075.00    1.56843   1.53471   -1.000
 6076.00    1.56903   1.53288   -1.000
 6077.00    1.56179   1.53120   -1.000
 6078.00    1.55851   1.52991   -1.000
 6079.00    1.55300   1.52885   -1.000
 6080.00    1.55679   1.52769   -1.000
 6081.00    1.56248   1.52638   -1.000
 6082.00    1.55547   1.52534   -1.000
 6083.00    1.55586   1.52505   -1.000
 6084.00    1.55563   1.52573   -1.000
 6085.00    1.55938   1.52708   -1.000
 6086.00    1.55588   1.52862   -1.000
 6087.00    1.55519   1.52980   -1.000
 6088.00    1.56176   1.53027   -1.000
 6089.00    1.56093   1.52989   -1.000
 6090.00    1.56362   1.52906   -1.000
 6091.00    1.56381   1.52862   -1.000
 6092.00    1.56342   1.52911   -1.000
 6093.00    1.56078   1.53069   -1.000
 6094.00    1.56025   1.53295   -1.000
 6095.00    1.55758   1.53535   -1.000
 6096.00    1.55722   1.53740   -1.000
 6097.00    1.56094   1.53827   -1.000
 6098.00    1.56175   1.53696   -1.000
 6099.00    1.55642   1.53269   -1.000
 6100.00    1.55090   1.52579   -1.000
 6101.00    1.53499   1.51828   55.564
 6102.00    1.51977   1.51329   55.643
 6103.00    1.52198   1.51282   55.577
 6104.00    1.53724   1.51688   55.413
 6105.00    1.54787   1.52317   -1.000
 6106.00    1.55211   1.52952   -1.000
 6107.00    1.54859   1.53448   54.874
 6108.00    1.54502   1.53781   54.861
 6109.00    1.55017   1.53939   55.152
 6110.00    1.55576   1.53955   55.448
 6111.00    1.55105   1.53881   55.546
 6112.00    1.54799   1.53809   55.996
 6113.00    1.55441   1.53782   56.842
 6114.00    1.56580   1.53807   -1.000
 6115.00    1.56087   1.53814   -1.000
 6116.00    1.55653   1.53716   -1.000
 6117.00    1.55412   1.53384   -1.000
 6118.00    1.54918   1.52727   -1.000
 6119.00    1.54130   1.51823   -1.000
 6120.00    1.53248   1.50873   -1.000
 6121.00    1.52264   1.50274   56.393
 6122.00    1.51540   1.50296   56.169
 6123.00    1.52653   1.50885   55.652
 6124.00    1.54182   1.51746   -1.000
 6125.00    1.54450   1.52456   55.241
 6126.00    1.54917   1.52818   -1.000
 6127.00    1.55290   1.52895   -1.000
 6128.00    1.54671   1.52948   57.753
 6129.00    1.54828   1.53183   59.425
 6130.00    1.55262   1.53571   -1.000
 6131.00    1.55262   1.53893   59.995
 6132.00    1.54799   1.53834   58.278
 6133.00    1.54184   1.53220   56.941
 6134.00    1.52925   1.52104   56.637
 6135.00    1.51344   1.50798   56.795
 6136.00    1.49792   1.49798   56.667
 6137.00    1.49080   1.49390   55.992
 6138.00    1.50821   1.49523   55.505
 6139.00    1.51957   1.49849   55.589
 6140.00    1.51839   1.50176   55.904
 6141.00    1.51734   1.50567   56.283
 6142.00    1.52208   1.51136   56.670
 6143.00    1.53877   1.51847   -1.000
 6144.00    1.55227   1.52443   -1.000
 6145.00    1.55685   1.52732   -1.000
 6146.00    1.55438   1.52691   -1.000
 6147.00    1.54761   1.52463   -1.000
 6148.00    1.54412   1.52252   -1.000
 6149.00    1.54264   1.52190   -1.000
 6150.00    1.54342   1.52303   -1.000
 6151.00    1.55100   1.52506   -1.000
 6152.00    1.54974   1.52676   -1.000
 6153.00    1.54396   1.52713   -1.000
 6154.00    1.54299   1.52602   -1.000
 6155.00    1.53983   1.52374   -1.000
 6156.00    1.53700   1.52060   -1.000
 6157.00    1.53678   1.51631   -1.000
 6158.00    1.53264   1.50972   -1.000
 6159.00    1.52051   1.50001   59.376
 6160.00    1.50764   1.48839   59.315
 6161.00    1.49210   1.47842   59.718
 6162.00    1.48022   1.47392   60.499
 6163.00    1.48430   1.47594   60.713
 6164.00    1.50512   1.48224   59.904
 6165.00    1.52295   1.48886   -1.000
 6166.00    1.52198   1.49326   -1.000
 6167.00    1.51661   1.49471   58.460
 6168.00    1.50764   1.49454   58.425
 6169.00    1.50664   1.49469   58.275
 6170.00    1.51005   1.49668   58.153
 6171.00    1.51002   1.50075   57.942
 6172.00    1.51612   1.50589   57.670
 6173.00    1.52275   1.51094   57.481
 6174.00    1.52771   1.51508   57.267
 6175.00    1.52811   1.51796   57.035
 6176.00    1.52825   1.51972   57.000
 6177.00    1.52214   1.52056   57.171
 6178.00    1.52596   1.52100   57.472
 6179.00    1.53291   1.52152   58.022
 6180.00    1.52880   1.52231   58.660
 6181.00    1.52404   1.52326   59.242
 6182.00    1.52868   1.52408   59.752
 6183.00    1.53541   1.52439   60.303
 6184.00    1.53472   1.52392   60.985
 6185.00    1.53664   1.52234   60.917
 6186.00    1.53903   1.51934   59.815
 6187.00    1.53078   1.51451   58.453
 6188.00    1.51694   1.50801   57.789
 6189.00    1.50973   1.50103   57.585
 6190.00    1.50693   1.49590   57.696
 6191.00    1.49564   1.49504   58.233
 6192.00    1.50108   1.49896   58.858
 6193.00    1.51515   1.50609   59.104
 6194.00    1.52039   1.51353   58.785
 6195.00    1.51820   1.51913   58.084
 6196.00    1.51397   1.52187   57.569
 6197.00    1.51762   1.52211   57.532
 6198.00    1.51560   1.52102   57.504
 6199.00    1.51276   1.52044   57.431
 6200.00    1.51380   1.52148   57.531
 6201.00    1.52019   1.52433   57.685
 6202.00    1.53515   1.52790   57.757
 6203.00    1.53456   1.53101   58.155
 6204.00    1.53073   1.53311   58.681
 6205.00    1.52990   1.53426   59.174
 6206.00    1.53389   1.53473   59.902
 6207.00    1.54091   1.53475   60.724
 6208.00    1.53642   1.53406   61.114
 6209.00    1.53534   1.53239   60.840
 6210.00    1.53015   1.52946   60.159
 6211.00    1.52609   1.52524   60.242
 6212.00    1.51431   1.52037   60.485
 6213.00    1.50829   1.51579   60.087
 6214.00    1.50823   1.51239   59.971
 6215.00    1.46605   1.51033   62.070
 6216.00    1.42899   1.50902   -1.000
 6217.00    1.50143   1.50789   61.104
 6218.00    1.51944   1.50699   59.403
 6219.00    1.51430   1.50690   59.583
 6220.00    1.51373   1.50812   59.722
 6221.00    1.52150   1.51035   60.295
 6222.00    1.52847   1.51273   61.238
 6223.00    1.52868   1.51465   62.170
 6224.00    1.53243   1.51561   62.489
 6225.00    1.52903   1.51540   61.855
 6226.00    1.52109   1.51338   60.799
 6227.00    1.52119   1.50895   59.697
 6228.00    1.50741   1.50253   59.042
 6229.00    1.48999   1.49594   59.116
 6230.00    1.49016   1.49190   59.654
 6231.00    1.49726   1.49226   60.271
 6232.00    1.50660   1.49687   60.896
 6233.00    1.51120   1.50350   61.378
 6234.00    1.51128   1.50924   61.475
 6235.00    1.51699   1.51197   61.639
 6236.00    1.51314   1.51150   62.120
 6237.00    1.51284   1.50887   62.320
 6238.00    1.51118   1.50609   62.084
 6239.00    1.50888   1.50420   61.564
 6240.00    1.51211   1.50321   60.860
 6241.00    1.50824   1.50197   60.133
 6242.00    1.50082   1.49952   59.770
 6243.00    1.49727   1.49588   60.029
 6244.00    1.49634   1.49236   60.881
 6245.00    1.49384   1.49094   61.888
 6246.00    1.49120   1.49269   62.459
 6247.00    1.50072   1.49712   62.750
 6248.00    1.50801   1.50204   62.817
 6249.00    1.50303   1.50483   63.045
 6250.00    1.49499   1.50396   63.669
 6251.00    1.48577   1.50023   63.847
 6252.00    1.47842   1.49575   63.191
 6253.00    1.47810   1.49270   62.192
 6254.00    1.47799   1.49191   61.306
 6255.00    1.47250   1.49282   60.425
 6256.00    1.46982   1.49462   59.766
 6257.00    1.48020   1.49710   59.875
 6258.00    1.48818   1.50034   60.372
 6259.00    1.48891   1.50437   60.449
 6260.00    1.49263   1.50870   60.048
 6261.00    1.49584   1.51269   59.903
 6262.00    1.49240   1.51559   60.211
 6263.00    1.49253   1.51734   60.338
 6264.00    1.49567   1.51811   60.168
 6265.00    1.49026   1.51856   59.985
 6266.00    1.48704   1.51882   59.990
 6267.00    1.48856   1.51858   60.301
 6268.00    1.48150   1.51751   60.782
 6269.00    1.46526   1.51551   61.502
 6270.00    1.44024   1.51301   62.799
 6271.00    1.41350   1.50982   -1.000
 6272.00    1.40935   1.50527   -1.000
 6273.00    1.41596   1.49842   -1.000
 6274.00    1.41599   1.48928   64.365
 6275.00    1.41783   1.47908   63.251
 6276.00    1.42195   1.46984   62.214
 6277.00    1.42481   1.46367   61.363
 6278.00    1.42938   1.46145   60.750
 6279.00    1.43686   1.46347   60.238
 6280.00    1.44733   1.46896   59.743
 6281.00    1.45994   1.47696   59.481
 6282.00    1.46705   1.48603   59.593
 6283.00    1.47077   1.49490   60.033
 6284.00    1.47920   1.50235   60.524
 6285.00    1.48420   1.50796   60.807
 6286.00    1.48207   1.51142   60.877
 6287.00    1.48400   1.51276   60.963
 6288.00    1.49039   1.51212   61.254
 6289.00    1.50356   1.51020   61.721
 6290.00    1.52850   1.50782   -1.000
 6291.00    1.57634   1.50580   -1.000
 6292.00    1.65722   1.50411   -1.000
 6293.00    1.75313   1.50236   -1.000
 6294.00    1.81236   1.49999   -1.000
 6295.00    1.76829   1.49717   -1.000
 6296.00    1.64334   1.49448   -1.000
 6297.00    1.53668   1.49258   -1.000
 6298.00    1.48863   1.49172   60.645
 6299.00    1.47343   1.49164   60.032
 6300.00    1.46489   1.49247   59.514
 6301.00    1.46571   1.49456   59.192
 6302.00    1.47312   1.49808   59.307
 6303.00    1.47789   1.50259   59.661
 6304.00    1.48306   1.50696   59.986
 6305.00    1.48645   1.51064   60.212
 6306.00    1.48914   1.51353   60.366
 6307.00    1.49335   1.51590   60.664
 6308.00    1.49094   1.51788   61.088
 6309.00    1.48448   1.51906   61.146
 6310.00    1.47881   1.51926   61.082
 6311.00    1.47547   1.51846   61.098
 6312.00    1.47539   1.51689   61.034
 6313.00    1.47549   1.51492   60.520
 6314.00    1.47383   1.51280   59.829
 6315.00    1.47331   1.51077   59.440
 6316.00    1.46949   1.50916   59.248
 6317.00    1.46758   1.50883   58.984
 6318.00    1.47051   1.51036   58.726
 6319.00    1.47599   1.51366   58.631
 6320.00    1.47778   1.51812   58.469
 6321.00    1.47600   1.52272   58.340
 6322.00    1.48045   1.52687   58.413
 6323.00    1.48881   1.53028   58.450
 6324.00    1.49380   1.53258   58.357
 6325.00    1.49559   1.53372   58.189
 6326.00    1.50708   1.53389   58.237
 6327.00    1.54199   1.53357   58.404
 6328.00    1.53285   1.53342   59.191
 6329.00    1.49470   1.53354   59.994
 6330.00    1.49484   1.53373   59.702
 6331.00    1.49295   1.53312   59.115
 6332.00    1.48738   1.53090   58.481
 6333.00    1.48422   1.52692   58.026
 6334.00    1.47341   1.52244   57.764
 6335.00    1.46847   1.51962   57.653
 6336.00    1.47096   1.51971   57.976
 6337.00    1.47550   1.52273   58.290
 6338.00    1.48110   1.52702   58.212
 6339.00    1.48559   1.53087   57.956
 6340.00    1.48513   1.53330   57.583
 6341.00    1.48498   1.53398   57.274
 6342.00    1.49008   1.53304   57.193
 6343.00    1.48440   1.53095   57.142
 6344.00    1.47979   1.52847   57.105
 6345.00    1.48485   1.52685   57.275
 6346.00    1.48685   1.52721   57.541
 6347.00    1.48450   1.52991   58.025
 6348.00    1.48426   1.53432   58.627
 6349.00    1.48787   1.53886   58.857
 6350.00    1.48716   1.54202   58.938
 6351.00    1.48766   1.54298   59.399
 6352.00    1.49156   1.54198   59.871
 6353.00    1.49276   1.53995   59.825
 6354.00    1.49885   1.53776   59.587
 6355.00    1.51551   1.53583   59.476
 6356.00    1.54360   1.53409   59.343
 6357.00    1.56504   1.53228   -1.000
 6358.00    1.55655   1.53048   -1.000
 6359.00    1.52121   1.52879   58.292
 6360.00    1.48809   1.52753   57.949
 6361.00    1.47049   1.52691   57.566
 6362.00    1.46271   1.52724   57.314
 6363.00    1.46266   1.52863   57.285
 6364.00    1.45873   1.53072   57.201
 6365.00    1.45282   1.53295   56.976
 6366.00    1.45261   1.53447   56.963
 6367.00    1.45239   1.53475   57.073
 6368.00    1.45217   1.53385   57.155
 6369.00    1.44586   1.53240   57.335
 6370.00    1.44049   1.53139   57.598
 6371.00    1.44296   1.53193   57.953
 6372.00    1.44028   1.53399   -1.000
 6373.00    1.43633   1.53667   -1.000
 6374.00    1.43603   1.53885   -1.000
 6375.00    1.43507   1.53965   -1.000
 6376.00    1.43226   1.53910   -1.000
 6377.00    1.42931   1.53768   -1.000
 6378.00    1.41993   1.53587   -1.000
 6379.00    1.41146   1.53415   -1.000
 6380.00    1.41309   1.53291   -1.000
 6381.00    1.40953   1.53241   -1.000
 6382.00    1.40194   1.53273   -1.000
 6383.00    1.40065   1.53368   -1.000
 6384.00    1.39773   1.53505   -1.000
 6385.00    1.39200   1.53668   -1.000
 6386.00    1.38709   1.53808   -1.000
 6387.00    1.38136   1.53883   -1.000
 6388.00    1.37283   1.53836   -1.000
 6389.00    1.36879   1.53607   -1.000
 6390.00    1.36435   1.53216   -1.000
 6391.00    1.35062   1.52757   -1.000
 6392.00    1.33453   1.52402   -1.000
 6393.00    1.32144   1.52316   -1.000
 6394.00    1.32085   1.52496   -1.000
 6395.00    1.32742   1.52789   -1.000
 6396.00    1.32274   1.52940   -1.000
 6397.00    1.30807   1.52833   -1.000
 6398.00    1.29112   1.52577   -1.000
 6399.00    1.27450   1.52410   -1.000
 6400.00    1.26572   1.52541   -1.000
 6401.00    1.26911   1.52966   -1.000
 6402.00    1.26980   1.53504   -1.000
 6403.00    1.26571   1.53901   -1.000
 6404.00    1.26220   1.53974   -1.000
 6405.00    1.25295   1.53716   -1.000
 6406.00    1.24313   1.53239   -1.000
 6407.00    1.23247   1.52760   -1.000
 6408.00    1.21888   1.52525   -1.000
 6409.00    1.21277   1.52532   -1.000
 6410.00    1.20854   1.52734   -1.000
 6411.00    1.19742   1.52989   -1.000
 6412.00    1.18234   1.53157   -1.000
 6413.00    1.17252   1.53273   -1.000
 6414.00    1.17116   1.53369   -1.000
 6415.00    1.16354   1.53472   -1.000
 6416.00    1.15285   1.53522   -1.000
 6417.00    1.14364   1.53489   -1.000
 6418.00    1.13080   1.53323   -1.000
 6419.00    1.11327   1.53110   -1.000
 6420.00    1.09389   1.53024   -1.000
 6421.00    1.07751   1.53192   -1.000
 6422.00    1.07149   1.53610   -1.000
 6423.00    1.06739   1.54146   -1.000
 6424.00    0.45933   1.54632   -1.000
 6425.00    0.00000   1.54934   -2.000
 6426.00    0.00000   1.54968   -2.000
 6427.00    0.00000   1.54704   -2.000
 6428.00    0.00000   1.54209   -2.000
