###################################################################
## OUTPUT of StarlightChains_v04.for    [Cid@UFSC - 01/Apr/2007] ##
###################################################################

## Some input info
NGC6388_a_1.cxt                          [arq_obs]
Base.BC03.S                              [arq_base]
NGC6388_a_1.msk                          [arq_masks]
StCv04.C99.config                        [arq_config]
  150                                    [N_base]
    0                                    [N_YAV_components = # of components with extra extinction!]
    0                                    [i_FitPowerLaw (1/0 = Yes/No)]
-9.99                                    [alpha_PowerLaw]
CCM                                      [red_law_option]
 1.458241                                [q_norm = A(l_norm)/A(V)]

## (Re)Sampling Parameters
 3359.00                                 [l_ini (A)]
 6428.00                                 [l_fin (A)]
    1.00                                 [dl    (A)]     (OBS: dl_cushion =    50.00 A)

## Normalization info
 4020.00                                 [l_norm (A) - for base]
 4010.00                                 [llow_norm (A) - window for f_obs]
 4060.00                                 [lupp_norm (A) - window for f_obs]
4.539934E-14                             [fobs_norm (in input units)]

## S/N
 4730.00                                 [llow_SN (A) - window for S/N]
 4780.00                                 [lupp_SN (A) - window for S/N]
  38.687                                 [S/N in S/N window]
  24.472                                 [S/N in norm. window]
 271.099                                 [S/N_err in S/N window]
 171.489                                 [S/N_err in norm. window]
  1.0000                                 [fscale_chi2]

## etc...
  2147483610                             [idum_orig]
  3066                                   [NOl_eff]
   678                                   [Nl_eff]
  2388    NSIGMA                         [Ntot_cliped & clip_method]
  3888850                                [Nglobal_steps]
   7                                     [N_chains]
  22                                     [NEX0s_base = N_base in EX0s-fits]
 0   0   1      207   2.0   3.751E+02    [Clip-Bug, RC-Crash & Burn-In warning-flags, n_censored_weights, wei_nsig_threshold & wei_limit]
   182    182.370    182.354      0.016  [idt_all, wdt_TotTime, wdt_UsrTime & wdt_SysTime (sec)]

## Synthesis Results - Best model ##

 2.58103E+00                             [chi2/Nl_eff]
     1.15608                             [adev (%)]

   100.88905                             [sum-of-x (%)]
 1.63255E-13                             [Flux_tot (units of input spectrum!)]
 9.05699E-09                             [Mini_tot (???)]
 4.55471E-09                             [Mcor_tot (???)]

 -13.32                                  [v0_min  (km/s)]
  44.47                                  [vd_min  (km/s)]
 0.9463                                  [AV_min  (mag)]
 0.0000                                  [YAV_min (mag)]

# j     x_j(%)      Mini_j(%)     Mcor_j(%)     age_j(yr)     Z_j      (L/M)_j    YAV?  Mstars   component_j        a/Fe...       SSP_chi2r SSP_adev(%)   SSP_AV   SSP_x(%)
  1      0.0000     0.0000E+00    0.0000E+00    1.000000E+06  0.00010  8.160E-03    0   1.0000   age020_m22            0.0000     4.2086E+03    37.8633   4.0000    97.3901
  2      5.1079     1.9176E-03    3.8132E-03    3.160000E+06  0.00010  4.759E-02    0   1.0000   age045_m22            0.0000     4.0883E+02    10.8453   3.0133    97.5171
  3      0.9348     8.6444E-04    1.6471E-03    5.010000E+06  0.00010  1.932E-02    0   0.9582   age055_m22            0.0000     1.1188E+03    19.6992   3.2335    86.1546
  4      0.0000     0.0000E+00    0.0000E+00    6.610000E+06  0.00010  9.973E-03    0   0.9297   age061_m22            0.0000     4.0010E+03    36.7490   4.0000   100.1582
  5      0.0000     0.0000E+00    0.0000E+00    8.710000E+06  0.00010  7.690E-03    0   0.9030   age067_m22            0.0000     3.9049E+03    36.3347   4.0000   100.5579
  6      0.0000     0.0000E+00    0.0000E+00    1.000000E+07  0.00010  6.375E-03    0   0.8902   age070_m22            0.0000     3.9399E+03    36.3387   4.0000   100.9228
  7      0.0000     0.0000E+00    0.0000E+00    1.445000E+07  0.00010  4.874E-03    0   0.8589   age078_m22            0.0000     2.7663E+03    31.3847   4.0000   101.5031
  8      0.0000     0.0000E+00    0.0000E+00    2.512000E+07  0.00010  4.103E-03    0   0.8174   age090_m22            0.0000     1.0790E+03    20.5210   4.0000   100.5109
  9      0.0000     0.0000E+00    0.0000E+00    4.000000E+07  0.00010  3.654E-03    0   0.7830   age104_m22            0.0000     6.2364E+02    13.9170   4.0000    98.2569
 10      0.0000     0.0000E+00    0.0000E+00    5.500000E+07  0.00010  3.093E-03    0   0.7597   age110_m22            0.0000     5.7282E+02    12.3537   4.0000    97.1322
 11      0.0000     0.0000E+00    0.0000E+00    1.015200E+08  0.00010  2.431E-03    0   0.7138   age116_m22            0.0000     6.1609E+02    11.9402   3.6813    99.3047
 12      0.0000     0.0000E+00    0.0000E+00    1.609000E+08  0.00010  1.319E-03    0   0.6775   age120_m22            0.0000     5.6382E+02    11.0926   3.2041   101.6148
 13      0.0000     0.0000E+00    0.0000E+00    2.861200E+08  0.00010  1.075E-03    0   0.6412   age125_m22            0.0000     8.7847E+02    13.6521   3.3194   103.8100
 14      0.0000     0.0000E+00    0.0000E+00    5.088000E+08  0.00010  7.183E-04    0   0.6083   age130_m22            0.0000     9.8334E+02    14.4928   3.0977   105.2327
 15      0.0000     0.0000E+00    0.0000E+00    9.047900E+08  0.00010  4.524E-04    0   0.5785   age135_m22            0.0000     9.8193E+02    14.4983   2.8936   106.4883
 16      0.0000     0.0000E+00    0.0000E+00    1.278050E+09  0.00010  3.018E-04    0   0.5588   age138_m22            0.0000     5.8833E+02    10.8624   2.3355   105.5569
 17      0.0000     0.0000E+00    0.0000E+00    1.434000E+09  0.00010  2.691E-04    0   0.5532   age139_m22            0.0000     5.1850E+02    10.1363   2.1760   105.1205
 18      0.0000     0.0000E+00    0.0000E+00    2.500000E+09  0.00010  1.582E-04    0   0.5296   age150_m22            0.0000     4.9385E+02     9.9580   2.0473   106.2796
 19      0.0000     0.0000E+00    0.0000E+00    4.250000E+09  0.00010  1.007E-04    0   0.5110   age158_m22            0.0000     3.7310E+02     8.4578   1.8855   104.7826
 20      0.0000     0.0000E+00    0.0000E+00    6.250000E+09  0.00010  6.869E-05    0   0.4985   age166_m22            0.0000     2.9507E+02     7.4979   1.8197   102.1702
 21      0.0000     0.0000E+00    0.0000E+00    7.500000E+09  0.00010  5.873E-05    0   0.4931   age171_m22            0.0000     2.9960E+02     7.6146   1.8011   101.7979
 22      0.0000     0.0000E+00    0.0000E+00    1.000000E+10  0.00010  4.481E-05    0   0.4854   age181_m22            0.0000     2.9116E+02     7.5170   1.7627   101.4299
 23      0.0000     0.0000E+00    0.0000E+00    1.300000E+10  0.00010  3.489E-05    0   0.4791   age193_m22            0.0000     2.7333E+02     7.2836   1.7074   100.8364
 24      0.0000     0.0000E+00    0.0000E+00    1.500000E+10  0.00010  3.035E-05    0   0.4766   age201_m22            0.0000     2.6441E+02     7.1849   1.6672   100.6869
 25      0.3101     2.2074E-01    2.0783E-01    1.800000E+10  0.00010  2.510E-05    0   0.4735   age213_m22            0.0000     2.4775E+02     7.0022   1.5973   100.1296
 26      0.0000     0.0000E+00    0.0000E+00    1.000000E+06  0.00040  8.458E-03    0   1.0000   age020_m32            0.0000     4.2883E+03    37.9471   4.0000    98.3423
 27      0.0000     0.0000E+00    0.0000E+00    3.160000E+06  0.00040  3.973E-02    0   1.0000   age045_m32            0.0000     8.8313E+02    18.6410   4.0000    98.0680
 28      0.0000     0.0000E+00    0.0000E+00    5.010000E+06  0.00040  1.935E-02    0   0.9532   age055_m32            0.0000     1.7374E+03    26.0625   4.0000    96.6552
 29      0.0000     0.0000E+00    0.0000E+00    6.610000E+06  0.00040  1.204E-02    0   0.9243   age061_m32            0.0000     3.0822E+03    33.0775   4.0000   100.3854
 30      0.0000     0.0000E+00    0.0000E+00    8.710000E+06  0.00040  9.433E-03    0   0.9001   age067_m32            0.0000     2.8699E+03    32.0481   4.0000   100.9771
 31      0.0000     0.0000E+00    0.0000E+00    1.000000E+07  0.00040  8.053E-03    0   0.8877   age070_m32            0.0000     2.6695E+03    31.1023   4.0000   100.8901
 32      0.0000     0.0000E+00    0.0000E+00    1.445000E+07  0.00040  7.027E-03    0   0.8578   age078_m32            0.0000     9.1360E+02    19.0947   4.0000    95.5302
 33      0.0000     0.0000E+00    0.0000E+00    2.512000E+07  0.00040  4.707E-03    0   0.8166   age090_m32            0.0000     6.4351E+02    14.8667   3.9246    94.0036
 34      0.0000     0.0000E+00    0.0000E+00    4.000000E+07  0.00040  3.714E-03    0   0.7827   age104_m32            0.0000     5.7805E+02    13.0009   3.7451    96.9150
 35      0.0000     0.0000E+00    0.0000E+00    5.500000E+07  0.00040  2.982E-03    0   0.7593   age110_m32            0.0000     5.7352E+02    12.4034   3.6949    97.8349
 36      0.0000     0.0000E+00    0.0000E+00    1.015200E+08  0.00040  2.188E-03    0   0.7143   age116_m32            0.0000     6.6539E+02    12.0168   3.4701   101.2196
 37      0.0000     0.0000E+00    0.0000E+00    1.609000E+08  0.00040  1.690E-03    0   0.6856   age120_m32            0.0000     7.8858E+02    12.9940   3.2838   103.5117
 38      0.0000     0.0000E+00    0.0000E+00    2.861200E+08  0.00040  1.152E-03    0   0.6509   age125_m32            0.0000     8.8957E+02    13.7533   3.0758   104.8315
 39      0.0000     0.0000E+00    0.0000E+00    5.088000E+08  0.00040  7.331E-04    0   0.6182   age130_m32            0.0000     9.2340E+02    13.9727   2.9156   105.4160
 40      0.0000     0.0000E+00    0.0000E+00    9.047900E+08  0.00040  3.960E-04    0   0.5890   age135_m32            0.0000     5.9569E+02    10.9686   2.4383   104.4905
 41      0.0000     0.0000E+00    0.0000E+00    1.278050E+09  0.00040  2.854E-04    0   0.5687   age138_m32            0.0000     5.2257E+02    10.2898   2.1204   107.0103
 42      0.0000     0.0000E+00    0.0000E+00    1.434000E+09  0.00040  2.531E-04    0   0.5632   age139_m32            0.0000     5.1267E+02    10.2145   2.0577   107.0622
 43      0.0000     0.0000E+00    0.0000E+00    2.500000E+09  0.00040  1.488E-04    0   0.5386   age150_m32            0.0000     4.0397E+02     9.0071   1.8028   105.2576
 44      1.0890     2.1424E-01    2.2149E-01    4.250000E+09  0.00040  9.082E-05    0   0.5199   age158_m32            0.0000     2.5486E+02     6.8570   1.6887   102.2904
 45     18.1491     5.0968E+00    5.1445E+00    6.250000E+09  0.00040  6.362E-05    0   0.5076   age166_m32            0.0000     2.2231E+02     6.5967   1.6289    99.3430
 46     12.2299     4.1313E+00    4.1297E+00    7.500000E+09  0.00040  5.289E-05    0   0.5027   age171_m32            0.0000     2.0930E+02     6.5334   1.5927    98.0714
 47     10.9112     4.9080E+00    4.8290E+00    1.000000E+10  0.00040  3.972E-05    0   0.4948   age181_m32            0.0000     1.9085E+02     6.3682   1.5324    96.6690
 48      0.0079     4.2833E-03    4.1479E-03    1.300000E+10  0.00040  3.283E-05    0   0.4870   age193_m32            0.0000     1.8634E+02     6.0271   1.4982    99.2466
 49      0.0000     0.0000E+00    0.0000E+00    1.500000E+10  0.00040  2.925E-05    0   0.4854   age201_m32            0.0000     1.9549E+02     6.0590   1.4849   100.7597
 50      0.0000     0.0000E+00    0.0000E+00    1.800000E+10  0.00040  2.469E-05    0   0.4819   age213_m32            0.0000     1.9523E+02     6.0544   1.4479   101.2527
 51      0.0000     0.0000E+00    0.0000E+00    1.000000E+06  0.00400  1.114E-02    0   1.0000   age020_m42            0.0000     3.8161E+03    36.2169   4.0000    97.9309
 52      0.0000     0.0000E+00    0.0000E+00    3.160000E+06  0.00400  4.073E-02    0   0.9999   age045_m42            0.0000     4.9618E+02    12.9169   3.9918    93.3808
 53      0.0000     0.0000E+00    0.0000E+00    5.010000E+06  0.00400  2.534E-02    0   0.9488   age055_m42            0.0000     1.1795E+03    21.8988   4.0000    96.5822
 54      0.0000     0.0000E+00    0.0000E+00    6.610000E+06  0.00400  2.583E-02    0   0.9220   age061_m42            0.0000     5.0762E+02    12.7595   3.8086    94.3483
 55      0.0000     0.0000E+00    0.0000E+00    8.710000E+06  0.00400  1.706E-02    0   0.8983   age067_m42            0.0000     6.3043E+02    15.1251   3.5994    93.3634
 56      0.0000     0.0000E+00    0.0000E+00    1.000000E+07  0.00400  1.271E-02    0   0.8862   age070_m42            0.0000     7.8542E+02    17.2113   3.5683    92.3412
 57      0.0000     0.0000E+00    0.0000E+00    1.445000E+07  0.00400  7.666E-03    0   0.8571   age078_m42            0.0000     8.7238E+02    18.3845   3.9630    89.0839
 58      0.0000     0.0000E+00    0.0000E+00    2.512000E+07  0.00400  5.070E-03    0   0.8174   age090_m42            0.0000     7.0281E+02    16.4599   3.4450    93.9388
 59      0.0000     0.0000E+00    0.0000E+00    4.000000E+07  0.00400  3.505E-03    0   0.7851   age104_m42            0.0000     5.1492E+02    14.1487   3.1456    96.6451
 60      0.0000     0.0000E+00    0.0000E+00    5.500000E+07  0.00400  3.059E-03    0   0.7629   age110_m42            0.0000     4.3402E+02    10.9686   3.2431   100.2972
 61      0.0000     0.0000E+00    0.0000E+00    1.015200E+08  0.00400  2.268E-03    0   0.7207   age116_m42            0.0000     6.6373E+02    11.8135   3.2001   104.2503
 62      0.0000     0.0000E+00    0.0000E+00    1.609000E+08  0.00400  1.720E-03    0   0.6930   age120_m42            0.0000     6.8120E+02    11.9057   3.0758   105.3614
 63      0.0000     0.0000E+00    0.0000E+00    2.861200E+08  0.00400  1.079E-03    0   0.6613   age125_m42            0.0000     6.4910E+02    11.5736   2.7118   106.1670
 64      0.0000     0.0000E+00    0.0000E+00    5.088000E+08  0.00400  6.261E-04    0   0.6313   age130_m42            0.0000     7.1711E+02    12.3665   2.5114   109.3153
 65      0.0000     0.0000E+00    0.0000E+00    9.047900E+08  0.00400  3.535E-04    0   0.6024   age135_m42            0.0000     4.6175E+02     9.6821   2.1020   109.8707
 66      0.0000     0.0000E+00    0.0000E+00    1.278050E+09  0.00400  2.677E-04    0   0.5837   age138_m42            0.0000     1.4280E+02     5.5386   1.4406   106.9509
 67      0.0000     0.0000E+00    0.0000E+00    1.434000E+09  0.00400  1.910E-04    0   0.5716   age139_m42            0.0000     2.0367E+02     6.1657   1.6091   107.7130
 68      0.0000     0.0000E+00    0.0000E+00    2.500000E+09  0.00400  9.818E-05    0   0.5463   age150_m42            0.0000     4.9108E+01     2.8274   1.3460   102.7067
 69      0.0000     0.0000E+00    0.0000E+00    4.250000E+09  0.00400  5.491E-05    0   0.5269   age158_m42            0.0000     2.1693E+01     2.2120   1.2187   100.1327
 70      0.0000     0.0000E+00    0.0000E+00    6.250000E+09  0.00400  3.857E-05    0   0.5151   age166_m42            0.0000     1.8114E+01     2.2437   1.1044    98.5950
 71      0.0000     0.0000E+00    0.0000E+00    7.500000E+09  0.00400  3.243E-05    0   0.5110   age171_m42            0.0000     2.2670E+01     2.4878   1.0349    97.8943
 72      0.0000     0.0000E+00    0.0000E+00    1.000000E+10  0.00400  2.424E-05    0   0.5028   age181_m42            0.0000     3.4815E+01     3.0152   0.9643    97.1198
 73      0.0000     0.0000E+00    0.0000E+00    1.300000E+10  0.00400  1.883E-05    0   0.4927   age193_m42            0.0000     4.9165E+01     3.5977   0.9276    96.7890
 74      0.0000     0.0000E+00    0.0000E+00    1.500000E+10  0.00400  1.685E-05    0   0.4919   age201_m42            0.0000     4.6338E+01     3.4634   0.9322    96.8497
 75      0.0000     0.0000E+00    0.0000E+00    1.800000E+10  0.00400  1.452E-05    0   0.4874   age213_m42            0.0000     4.1780E+01     3.2474   0.9460    97.2002
 76      0.0000     0.0000E+00    0.0000E+00    1.000000E+06  0.00800  1.286E-02    0   1.0000   age020_m52            0.0000     3.5886E+03    35.0686   4.0000    99.6773
 77      0.0000     0.0000E+00    0.0000E+00    3.160000E+06  0.00800  3.147E-02    0   0.9966   age045_m52            0.0000     3.1138E+03    33.2040   4.0000   100.2156
 78      0.0000     0.0000E+00    0.0000E+00    5.010000E+06  0.00800  2.664E-02    0   0.9443   age055_m52            0.0000     1.5756E+03    25.0484   4.0000    98.1046
 79      0.0000     0.0000E+00    0.0000E+00    6.610000E+06  0.00800  2.151E-02    0   0.9177   age061_m52            0.0000     5.9485E+02    15.2048   3.1716    93.7773
 80      0.0000     0.0000E+00    0.0000E+00    8.710000E+06  0.00800  1.628E-02    0   0.8948   age067_m52            0.0000     6.6388E+02    15.9170   3.5528    94.0252
 81      0.0000     0.0000E+00    0.0000E+00    1.000000E+07  0.00800  1.215E-02    0   0.8827   age070_m52            0.0000     7.5093E+02    17.0145   3.8936    92.1436
 82      0.0000     0.0000E+00    0.0000E+00    1.445000E+07  0.00800  8.739E-03    0   0.8552   age078_m52            0.0000     6.9089E+02    16.0700   3.9438    93.2542
 83      0.0000     0.0000E+00    0.0000E+00    2.512000E+07  0.00800  5.676E-03    0   0.8162   age090_m52            0.0000     6.0960E+02    13.9942   3.5647    97.7758
 84      0.0000     0.0000E+00    0.0000E+00    4.000000E+07  0.00800  3.939E-03    0   0.7841   age104_m52            0.0000     5.4194E+02    12.2840   3.4199    99.7966
 85      0.0000     0.0000E+00    0.0000E+00    5.500000E+07  0.00800  3.155E-03    0   0.7627   age110_m52            0.0000     5.3973E+02    11.3868   3.3998   101.1792
 86      0.0000     0.0000E+00    0.0000E+00    1.015200E+08  0.00800  2.206E-03    0   0.7226   age116_m52            0.0000     5.8682E+02    10.9647   3.2417   104.3680
 87      0.0000     0.0000E+00    0.0000E+00    1.609000E+08  0.00800  1.596E-03    0   0.6963   age120_m52            0.0000     6.1394E+02    11.1331   3.0374   105.8538
 88      0.0000     0.0000E+00    0.0000E+00    2.861200E+08  0.00800  1.002E-03    0   0.6665   age125_m52            0.0000     7.3642E+02    12.4660   2.7717   107.9813
 89      0.0000     0.0000E+00    0.0000E+00    5.088000E+08  0.00800  5.759E-04    0   0.6377   age130_m52            0.0000     7.2893E+02    12.1708   2.4419   111.5399
 90      0.0000     0.0000E+00    0.0000E+00    9.047900E+08  0.00800  2.972E-04    0   0.6086   age135_m52            0.0000     4.0603E+02     8.5365   1.9194   109.7943
 91      0.0000     0.0000E+00    0.0000E+00    1.278050E+09  0.00800  2.242E-04    0   0.5907   age138_m52            0.0000     1.1831E+02     4.6988   1.2980   108.8488
 92      0.0000     0.0000E+00    0.0000E+00    1.434000E+09  0.00800  1.645E-04    0   0.5787   age139_m52            0.0000     1.0795E+02     4.3180   1.4383   108.3933
 93      0.0028     6.4891E-04    7.1215E-04    2.500000E+09  0.00800  7.723E-05    0   0.5519   age150_m52            0.0000     2.9646E+01     2.7822   1.1100   104.4393
 94      0.0000     0.0000E+00    0.0000E+00    4.250000E+09  0.00800  4.151E-05    0   0.5320   age158_m52            0.0000     1.9472E+01     2.6361   1.0423   101.8645
 95      3.3723     2.0017E+00    2.0686E+00    6.250000E+09  0.00800  3.010E-05    0   0.5197   age166_m52            0.0000     3.4675E+01     3.4373   0.8655   100.1805
 96      3.3341     2.4146E+00    2.4675E+00    7.500000E+09  0.00800  2.467E-05    0   0.5139   age171_m52            0.0000     4.2510E+01     3.7427   0.8280    99.7094
 97      1.3019     1.2492E+00    1.2554E+00    1.000000E+10  0.00800  1.862E-05    0   0.5054   age181_m52            0.0000     7.4986E+01     4.7791   0.7134    99.0186
 98      1.7444     2.1749E+00    2.1572E+00    1.300000E+10  0.00800  1.433E-05    0   0.4988   age193_m52            0.0000     1.1750E+02     5.8608   0.6284    99.4765
 99      1.2455     1.7889E+00    1.7558E+00    1.500000E+10  0.00800  1.244E-05    0   0.4936   age201_m52            0.0000     1.3570E+02     6.2409   0.6026    99.8987
100      0.0202     3.3673E-02    3.2730E-02    1.800000E+10  0.00800  1.070E-05    0   0.4888   age213_m52            0.0000     1.5125E+02     6.5553   0.5725    99.6970
101      0.0000     0.0000E+00    0.0000E+00    1.000000E+06  0.02000  1.989E-02    0   1.0000   age020_m62            0.0000     3.5764E+03    35.0382   4.0000    98.3328
102      0.0000     0.0000E+00    0.0000E+00    3.160000E+06  0.02000  3.772E-02    0   0.9858   age045_m62            0.0000     2.8191E+03    32.0763   4.0000    98.8466
103      0.0000     0.0000E+00    0.0000E+00    5.010000E+06  0.02000  3.227E-02    0   0.9342   age055_m62            0.0000     8.3656E+02    18.3886   4.0000    96.5500
104      0.0000     0.0000E+00    0.0000E+00    6.610000E+06  0.02000  2.387E-02    0   0.9090   age061_m62            0.0000     8.6923E+02    18.0791   3.9551    90.9037
105      0.0000     0.0000E+00    0.0000E+00    8.710000E+06  0.02000  1.102E-02    0   0.8861   age067_m62            0.0000     1.7173E+03    24.8067   3.5720    87.1486
106      0.0000     0.0000E+00    0.0000E+00    1.000000E+07  0.02000  1.011E-02    0   0.8751   age070_m62            0.0000     1.2589E+03    21.6461   3.6031    89.2760
107      0.0000     0.0000E+00    0.0000E+00    1.445000E+07  0.02000  7.331E-03    0   0.8472   age078_m62            0.0000     9.5297E+02    19.1388   3.6282    90.4111
108      0.0000     0.0000E+00    0.0000E+00    2.512000E+07  0.02000  4.206E-03    0   0.8099   age090_m62            0.0000     9.6195E+02    19.3562   3.5418    89.9551
109      0.0000     0.0000E+00    0.0000E+00    4.000000E+07  0.02000  3.373E-03    0   0.7799   age104_m62            0.0000     5.2423E+02    13.6334   3.3806    97.9217
110      0.0000     0.0000E+00    0.0000E+00    5.500000E+07  0.02000  2.747E-03    0   0.7595   age110_m62            0.0000     5.0082E+02    11.7826   3.3304   101.0091
111      0.0000     0.0000E+00    0.0000E+00    1.015200E+08  0.02000  1.878E-03    0   0.7221   age116_m62            0.0000     6.3361E+02    11.5366   3.2165   105.2034
112      0.0000     0.0000E+00    0.0000E+00    1.609000E+08  0.02000  1.378E-03    0   0.6978   age120_m62            0.0000     7.5421E+02    12.5316   3.0776   107.3879
113      0.0000     0.0000E+00    0.0000E+00    2.861200E+08  0.02000  8.869E-04    0   0.6700   age125_m62            0.0000     9.6143E+02    14.2408   2.7302   111.2274
114      0.0000     0.0000E+00    0.0000E+00    5.088000E+08  0.02000  4.834E-04    0   0.6430   age130_m62            0.0000     7.9797E+02    12.5152   2.3149   112.8863
115      0.0000     0.0000E+00    0.0000E+00    9.047900E+08  0.02000  2.312E-04    0   0.6152   age135_m62            0.0000     3.5486E+02     7.6503   1.7184   111.9181
116      0.0000     0.0000E+00    0.0000E+00    1.278050E+09  0.02000  1.387E-04    0   0.5927   age138_m62            0.0000     1.2235E+02     4.3676   1.3466   107.5117
117      0.0000     0.0000E+00    0.0000E+00    1.434000E+09  0.02000  1.168E-04    0   0.5865   age139_m62            0.0000     9.0856E+01     3.8082   1.3192   105.9266
118      0.0000     0.0000E+00    0.0000E+00    2.500000E+09  0.02000  5.505E-05    0   0.5610   age150_m62            0.0000     4.2927E+01     3.5475   0.9688   102.7089
119      0.0000     0.0000E+00    0.0000E+00    4.250000E+09  0.02000  3.070E-05    0   0.5407   age158_m62            0.0000     1.0344E+02     5.4347   0.7034   102.0529
120      0.0006     5.0730E-04    5.3232E-04    6.250000E+09  0.02000  2.104E-05    0   0.5277   age166_m62            0.0000     1.5490E+02     6.5832   0.5849   102.2245
121      7.3226     7.3915E+00    7.6767E+00    7.500000E+09  0.02000  1.770E-05    0   0.5223   age171_m62            0.0000     1.8935E+02     7.2031   0.5064   102.4113
122     11.8578     1.6334E+01    1.6633E+01    1.000000E+10  0.02000  1.297E-05    0   0.5121   age181_m62            0.0000     2.6952E+02     8.4618   0.3651   102.5871
123      3.0504     5.6237E+00    5.6439E+00    1.300000E+10  0.02000  9.691E-06    0   0.5047   age193_m62            0.0000     3.2953E+02     9.2566   0.2913   102.8108
124      5.4511     1.1650E+01    1.1580E+01    1.500000E+10  0.02000  8.360E-06    0   0.4999   age201_m62            0.0000     3.8666E+02     9.9742   0.2303   102.8695
125     13.4449     3.4758E+01    3.4185E+01    1.800000E+10  0.02000  6.911E-06    0   0.4946   age213_m62            0.0000     4.6344E+02    10.8828   0.1689   102.8722
126      0.0000     0.0000E+00    0.0000E+00    1.000000E+06  0.05000  2.651E-02    0   0.9998   age020_m72            0.0000     3.5273E+03    34.6626   4.0000    99.4613
127      0.0000     0.0000E+00    0.0000E+00    3.160000E+06  0.05000  4.817E-02    0   0.9577   age045_m72            0.0000     2.0007E+03    27.5597   4.0000   100.0092
128      0.0000     0.0000E+00    0.0000E+00    5.010000E+06  0.05000  3.101E-02    0   0.9147   age055_m72            0.0000     1.0329E+03    20.6474   4.0000    95.6814
129      0.0000     0.0000E+00    0.0000E+00    6.610000E+06  0.05000  1.472E-02    0   0.8877   age061_m72            0.0000     1.2272E+03    21.2376   3.8566    87.9714
130      0.0000     0.0000E+00    0.0000E+00    8.710000E+06  0.05000  1.050E-02    0   0.8638   age067_m72            0.0000     1.1372E+03    21.5322   4.0000    93.6674
131      0.0000     0.0000E+00    0.0000E+00    1.000000E+07  0.05000  8.954E-03    0   0.8524   age070_m72            0.0000     1.5867E+03    24.9191   4.0000    99.4043
132      0.0000     0.0000E+00    0.0000E+00    1.445000E+07  0.05000  6.392E-03    0   0.8262   age078_m72            0.0000     1.3423E+03    23.1334   4.0000    99.3637
133      0.0000     0.0000E+00    0.0000E+00    2.512000E+07  0.05000  4.207E-03    0   0.7902   age090_m72            0.0000     5.6823E+02    15.0323   4.0000    95.4092
134      0.0000     0.0000E+00    0.0000E+00    4.000000E+07  0.05000  3.198E-03    0   0.7618   age104_m72            0.0000     5.0618E+02    10.7578   3.6231   100.3839
135      0.0000     0.0000E+00    0.0000E+00    5.500000E+07  0.05000  2.593E-03    0   0.7432   age110_m72            0.0000     5.7431E+02    11.0623   3.5359   102.2109
136      0.0000     0.0000E+00    0.0000E+00    1.015200E+08  0.05000  1.716E-03    0   0.7092   age116_m72            0.0000     7.0461E+02    11.9896   3.3518   104.6292
137      0.0000     0.0000E+00    0.0000E+00    1.609000E+08  0.05000  1.218E-03    0   0.6876   age120_m72            0.0000     8.3163E+02    13.1593   3.0788   107.3196
138      0.0000     0.0000E+00    0.0000E+00    2.861200E+08  0.05000  7.047E-04    0   0.6618   age125_m72            0.0000     9.0693E+02    13.5497   2.5707   110.6124
139      0.0000     0.0000E+00    0.0000E+00    5.088000E+08  0.05000  3.590E-04    0   0.6356   age130_m72            0.0000     6.6223E+02    10.9172   2.0075   112.7391
140      0.0000     0.0000E+00    0.0000E+00    9.047900E+08  0.05000  1.484E-04    0   0.6088   age135_m72            0.0000     1.6657E+02     5.6564   1.2794   106.1814
141      0.0005     9.8414E-05    1.1593E-04    1.278050E+09  0.05000  9.435E-05    0   0.5924   age138_m72            0.0000     1.2704E+02     5.6419   0.9044   102.7838
142      0.0000     0.0000E+00    0.0000E+00    1.434000E+09  0.05000  7.827E-05    0   0.5847   age139_m72            0.0000     1.1157E+02     5.4257   0.9198   102.2190
143      0.0000     0.0000E+00    0.0000E+00    2.500000E+09  0.05000  3.759E-05    0   0.5583   age150_m72            0.0000     1.6989E+02     6.8617   0.6160   101.1927
144      0.0000     0.0000E+00    0.0000E+00    4.250000E+09  0.05000  1.842E-05    0   0.5374   age158_m72            0.0000     3.0757E+02     8.7433   0.3577   100.0064
145      0.0000     0.0000E+00    0.0000E+00    6.250000E+09  0.05000  1.207E-05    0   0.5242   age166_m72            0.0000     4.5795E+02    10.4172   0.1479    99.1774
146      0.0000     0.0000E+00    0.0000E+00    7.500000E+09  0.05000  9.993E-06    0   0.5183   age171_m72            0.0000     4.8693E+02    10.6526   0.1116    99.0157
147      0.0000     0.0000E+00    0.0000E+00    1.000000E+10  0.05000  7.291E-06    0   0.5081   age181_m72            0.0000     6.1113E+02    11.8641   0.0067    98.5462
148      0.0000     0.0000E+00    0.0000E+00    1.300000E+10  0.05000  5.316E-06    0   0.5018   age193_m72            0.0000     8.3247E+02    13.8078  -0.1434    97.7339
149      0.0000     0.0000E+00    0.0000E+00    1.500000E+10  0.05000  4.497E-06    0   0.4972   age201_m72            0.0000     9.4920E+02    14.7561  -0.2024    97.6608
150      0.0000     0.0000E+00    0.0000E+00    1.800000E+10  0.05000  3.739E-06    0   0.4924   age213_m72            0.0000     1.1066E+03    15.9919  -0.2880    97.3048


## Synthesis Results - Average & Chains ##

# j      x_j: min, <> & last-chain-values for 1 ...  7 chains
  1      0.0000      0.0047      0.0041      0.0000      0.0000      0.0000      0.0000      0.0000      0.0000
  2      5.1079      3.8364      3.8394      3.9735      3.7924      3.9877      4.0189      4.0443      3.9736
  3      0.9348      1.5282      1.4083      1.5810      1.5457      1.5928      1.3612      1.4288      1.5500
  4      0.0000      0.0048      0.0000      0.0008      0.0000      0.0000      0.0557      0.0000      0.0000
  5      0.0000      0.0042      0.0000      0.0000      0.0000      0.0000      0.0000      0.0000      0.0000
  6      0.0000      0.0075      0.0000      0.0000      0.0000      0.0000      0.0000      0.0000      0.0000
  7      0.0000      0.0091      0.0000      0.0000      0.0000      0.0000      0.0000      0.0000      0.0000
  8      0.0000      0.0104      0.0000      0.0000      0.0486      0.0000      0.0000      0.0000      0.0000
  9      0.0000      0.0140      0.0000      0.0000      0.0261      0.0000      0.0186      0.0000      0.0000
 10      0.0000      0.0096      0.0000      0.0000      0.0000      0.0550      0.0000      0.0000      0.0000
 11      0.0000      0.0105      0.0000      0.0000      0.0000      0.0000      0.0000      0.0000      0.0000
 12      0.0000      0.0100      0.0000      0.0000      0.0638      0.0000      0.0000      0.0000      0.0000
 13      0.0000      0.0120      0.0000      0.0000      0.0303      0.0000      0.0000      0.0000      0.0000
 14      0.0000      0.0106      0.0000      0.0000      0.0000      0.0000      0.0000      0.0000      0.0030
 15      0.0000      0.0135      0.0000      0.0000      0.0000      0.0000      0.0000      0.0000      0.0182
 16      0.0000      0.0231      0.1870      0.0000      0.0000      0.0000      0.0000      0.0057      0.0000
 17      0.0000      0.0163      0.0000      0.0000      0.0000      0.0000      0.0000      0.0000      0.0000
 18      0.0000      0.0323      0.0000      0.0000      0.0000      0.0331      0.0704      0.2591      0.0835
 19      0.0000      0.0464      0.0000      0.0000      0.0000      0.0821      0.2879      0.1557      0.2376
 20      0.0000      0.0897      0.0000      0.0000      0.2620      0.0000      0.0000      0.2625      0.0000
 21      0.0000      0.0873      0.0575      0.0000      0.0000      0.0000      0.2288      0.0620      0.0000
 22      0.0000      0.1245      0.4792      0.0144      0.3069      0.1181      0.3933      0.0000      0.2360
 23      0.0000      0.0873      0.0000      0.0690      0.1813      0.3919      0.3778      0.2332      0.1475
 24      0.0000      0.1142      0.0253      0.1566      0.0000      0.0000      0.0000      0.0000      0.3189
 25      0.3101      0.1797      0.5471      0.5070      0.0762      0.2327      0.2625      0.0000      0.0627
 26      0.0000      0.0077      0.0000      0.0000      0.0000      0.0000      0.0000      0.0039      0.0000
 27      0.0000      0.0173      0.0039      0.0000      0.0000      0.0000      0.0101      0.0000      0.0000
 28      0.0000      0.0111      0.0000      0.0000      0.0000      0.0000      0.0919      0.0095      0.0000
 29      0.0000      0.0081      0.0836      0.0000      0.0000      0.0000      0.0000      0.0000      0.0000
 30      0.0000      0.0064      0.0000      0.0000      0.0000      0.0000      0.0000      0.0000      0.0000
 31      0.0000      0.0049      0.0000      0.0000      0.0000      0.0000      0.0395      0.0000      0.0000
 32      0.0000      0.0072      0.1271      0.0000      0.0183      0.0000      0.0000      0.0025      0.0000
 33      0.0000      0.0113      0.0000      0.0000      0.0000      0.0000      0.0000      0.0000      0.0000
 34      0.0000      0.0210      0.1069      0.0000      0.0155      0.0000      0.0000      0.0279      0.0000
 35      0.0000      0.0097      0.0000      0.0000      0.0000      0.0000      0.0000      0.0000      0.0911
 36      0.0000      0.0107      0.0276      0.0000      0.0000      0.0377      0.1001      0.0000      0.0000
 37      0.0000      0.0155      0.0000      0.1289      0.0000      0.0727      0.0000      0.0000      0.0000
 38      0.0000      0.0119      0.0000      0.0000      0.0000      0.0000      0.0000      0.0000      0.0000
 39      0.0000      0.0165      0.0000      0.0000      0.0000      0.0000      0.0000      0.0000      0.0000
 40      0.0000      0.0145      0.0000      0.0130      0.0000      0.0000      0.0000      0.0000      0.0000
 41      0.0000      0.0257      0.0000      0.0353      0.0000      0.0000      0.0214      0.0057      0.0000
 42      0.0000      0.0299      0.0000      0.0000      0.0000      0.0187      0.0237      0.0000      0.0000
 43      0.0000      0.0479      0.0344      0.0421      0.0000      0.1794      0.0000      0.0000      0.0000
 44      1.0890      0.5093      0.4559      0.8724      0.4859      0.7287      0.2531      0.5398      0.9617
 45     18.1491     16.4427     16.5960     16.5816     17.6126     16.4298     16.6758     16.7332     16.6466
 46     12.2299     10.9224     11.2583     11.2122     11.0479     10.9306     11.0444     11.3638     11.0826
 47     10.9112     11.2334     11.0860     11.1858     10.8969     11.8514     10.9679     11.7911     11.2416
 48      0.0079      1.1311      0.9143      1.1136      0.7542      0.9343      1.0786      0.8599      1.1461
 49      0.0000      0.2549      0.1455      0.0568      0.4274      0.0000      0.3632      0.0000      0.0000
 50      0.0000      0.1183      0.0000      0.0000      0.1192      0.0622      0.3484      0.0979      0.0000
 51      0.0000      0.0058      0.0000      0.0000      0.0000      0.0232      0.0143      0.0000      0.0000
 52      0.0000      0.0112      0.0875      0.0000      0.0000      0.0000      0.0000      0.0000      0.0000
 53      0.0000      0.0089      0.0000      0.0000      0.0000      0.0000      0.0000      0.0000      0.0000
 54      0.0000      0.0121      0.0000      0.0000      0.0000      0.0000      0.0000      0.0888      0.0000
 55      0.0000      0.0132      0.0163      0.0000      0.0000      0.0000      0.0000      0.0000      0.0000
 56      0.0000      0.0136      0.0000      0.0000      0.0000      0.0000      0.0000      0.0000      0.0000
 57      0.0000      0.0162      0.0000      0.0965      0.0000      0.0000      0.0000      0.0000      0.0000
 58      0.0000      0.0108      0.0000      0.1150      0.0000      0.0000      0.0000      0.0000      0.0000
 59      0.0000      0.0091      0.0000      0.0000      0.0350      0.0000      0.0000      0.0000      0.1610
 60      0.0000      0.0121      0.0000      0.0000      0.0000      0.0000      0.0000      0.0000      0.0318
 61      0.0000      0.0164      0.0000      0.0000      0.0057      0.0000      0.0000      0.0000      0.0000
 62      0.0000      0.0087      0.0000      0.0000      0.0000      0.0000      0.0817      0.0227      0.0000
 63      0.0000      0.0171      0.0000      0.0000      0.0000      0.0487      0.0000      0.0000      0.0000
 64      0.0000      0.0295      0.0000      0.0000      0.0000      0.0137      0.0831      0.1301      0.0747
 65      0.0000      0.0274      0.0000      0.0000      0.0000      0.0000      0.0113      0.0000      0.0000
 66      0.0000      0.0385      0.0000      0.0648      0.0000      0.2332      0.0358      0.0000      0.0139
 67      0.0000      0.0370      0.0340      0.0000      0.0000      0.0000      0.0000      0.0000      0.1777
 68      0.0000      0.1283      0.5699      0.0000      0.6909      0.2029      0.0000      0.0000      0.0000
 69      0.0000      0.1946      0.0000      0.0000      0.3928      0.1836      0.0000      0.4110      0.0848
 70      0.0000      0.1939      0.0000      0.0000      0.1397      0.0000      0.0000      0.0000      0.0512
 71      0.0000      0.4204      0.0199      0.0000      0.1989      0.3116      1.3446      0.2934      0.0661
 72      0.0000      0.3237      0.0000      0.0000      0.3230      0.1937      0.0139      0.0000      0.2670
 73      0.0000      0.1448      0.1182      0.0000      0.1239      0.0000      0.1045      0.0000      0.0000
 74      0.0000      0.1248      0.0955      0.0000      0.1456      0.0000      0.0000      0.3074      0.0000
 75      0.0000      0.1160      0.1240      0.0643      0.0153      0.0000      0.0000      0.2082      0.0442
 76      0.0000      0.0039      0.0000      0.0000      0.0000      0.0000      0.0000      0.0000      0.0000
 77      0.0000      0.0084      0.0000      0.0000      0.0000      0.0000      0.0000      0.0000      0.0000
 78      0.0000      0.0075      0.0000      0.0000      0.0000      0.0000      0.0000      0.0042      0.0000
 79      0.0000      0.0099      0.0000      0.0000      0.0000      0.0000      0.0000      0.0000      0.0000
 80      0.0000      0.0092      0.0000      0.0492      0.0000      0.0000      0.0000      0.0000      0.0000
 81      0.0000      0.0066      0.0496      0.0000      0.0000      0.0000      0.0000      0.0057      0.0000
 82      0.0000      0.0081      0.0000      0.0000      0.0000      0.0000      0.0000      0.0000      0.0000
 83      0.0000      0.0105      0.0000      0.0000      0.1233      0.0000      0.0000      0.0000      0.0780
 84      0.0000      0.0059      0.0000      0.0000      0.0000      0.0000      0.0000      0.0000      0.0000
 85      0.0000      0.0115      0.0000      0.0000      0.0000      0.0000      0.0000      0.0000      0.0000
 86      0.0000      0.0122      0.0950      0.0284      0.0000      0.0000      0.0000      0.0000      0.0000
 87      0.0000      0.0156      0.0000      0.0000      0.0000      0.0000      0.0000      0.0000      0.0000
 88      0.0000      0.0086      0.0311      0.0000      0.0000      0.0000      0.0000      0.0000      0.0000
 89      0.0000      0.0146      0.0000      0.0000      0.0000      0.0000      0.0000      0.0000      0.0000
 90      0.0000      0.0207      0.0000      0.0011      0.0078      0.0000      0.0000      0.0000      0.0000
 91      0.0000      0.0500      0.2366      0.1204      0.2613      0.0000      0.0000      0.0000      0.0000
 92      0.0000      0.0518      0.0227      0.0000      0.0000      0.0830      0.0000      0.0000      0.0000
 93      0.0028      0.2601      0.1854      0.9762      0.0000      0.2119      0.0000      0.0000      0.1263
 94      0.0000      0.6454      1.0507      0.2585      0.7534      0.4673      0.7974      1.2666      0.1189
 95      3.3723      1.3412      1.3747      1.9375      1.5871      2.3142      1.3007      2.1169      3.9299
 96      3.3341      1.5581      2.5635      2.9982      1.3747      2.2095      1.1085      2.2794      1.5574
 97      1.3019      0.9552      1.3104      0.4955      0.8457      1.1941      1.3622      0.9025      0.8260
 98      1.7444      0.9038      1.4351      1.2683      0.7513      0.7689      1.8252      0.7748      1.0527
 99      1.2455      0.9788      1.2463      1.2111      0.9114      1.0052      1.0620      0.2906      0.8442
100      0.0202      0.5022      0.4557      0.9244      0.9728      0.5074      0.4247      0.3488      0.3726
101      0.0000      0.0051      0.0000      0.0000      0.0000      0.0000      0.0000      0.0000      0.0000
102      0.0000      0.0071      0.0000      0.0136      0.0000      0.0000      0.0880      0.0000      0.0095
103      0.0000      0.0116      0.0000      0.0000      0.0000      0.0000      0.0000      0.0000      0.0098
104      0.0000      0.0079      0.0000      0.0000      0.0248      0.0000      0.0000      0.0000      0.0000
105      0.0000      0.0068      0.0000      0.0000      0.0000      0.0000      0.0000      0.0000      0.0000
106      0.0000      0.0069      0.0000      0.0000      0.0000      0.0000      0.0000      0.0000      0.0000
107      0.0000      0.0085      0.0026      0.0000      0.0000      0.0218      0.0000      0.0000      0.0000
108      0.0000      0.0067      0.0000      0.0000      0.0000      0.0000      0.0000      0.0000      0.0000
109      0.0000      0.0103      0.0000      0.0000      0.0000      0.0000      0.0000      0.0000      0.0000
110      0.0000      0.0077      0.0000      0.0000      0.0000      0.0734      0.0000      0.0000      0.0000
111      0.0000      0.0129      0.0000      0.0487      0.0000      0.0000      0.0000      0.0000      0.0000
112      0.0000      0.0090      0.0000      0.0000      0.0000      0.0000      0.0000      0.0000      0.0000
113      0.0000      0.0102      0.0392      0.0000      0.0000      0.0000      0.0000      0.0000      0.0000
114      0.0000      0.0137      0.0000      0.0000      0.0000      0.0000      0.0376      0.0000      0.0000
115      0.0000      0.0333      0.0000      0.0000      0.0000      0.0000      0.0000      0.0000      0.0000
116      0.0000      0.0644      0.0335      0.0000      0.1165      0.0000      0.1315      0.1463      0.1377
117      0.0000      0.0650      0.0000      0.2733      0.0000      0.0000      0.0000      0.0000      0.0000
118      0.0000      0.2385      0.0000      0.0000      0.0000      0.0652      0.0000      0.0000      0.0000
119      0.0000      0.2238      0.0000      0.0000      0.1687      0.3708      0.3234      0.0000      0.1007
120      0.0006      0.4443      0.4206      0.3525      0.9277      1.1417      0.4851      0.5064      0.0000
121      7.3226      8.1888      8.0324      8.2451      8.0295      7.5960      8.1226      8.2357      8.2383
122     11.8578     12.4569     12.0334     12.1248     12.0244     12.3926     12.1824     12.7638     12.8289
123      3.0504      3.4861      3.4778      3.5502      3.4624      3.3696      3.4327      3.4690      3.6343
124      5.4511      5.2781      5.3387      5.1553      5.2901      5.1166      5.2264      5.4261      5.2351
125     13.4449     12.4140     12.3757     12.2739     12.5780     12.5812     12.5183     12.4514     12.2665
126      0.0000      0.0055      0.0000      0.0000      0.0000      0.0000      0.0000      0.0138      0.0000
127      0.0000      0.0056      0.0000      0.0000      0.0000      0.0000      0.0000      0.0000      0.0000
128      0.0000      0.0105      0.0000      0.0000      0.0000      0.0000      0.0000      0.0000      0.0000
129      0.0000      0.0080      0.0000      0.0000      0.0000      0.0000      0.0000      0.0000      0.0000
130      0.0000      0.0055      0.0000      0.0000      0.0000      0.0000      0.0000      0.0708      0.0000
131      0.0000      0.0065      0.0000      0.0000      0.0000      0.0000      0.0000      0.0000      0.0000
132      0.0000      0.0047      0.0000      0.0000      0.0000      0.0000      0.0000      0.0000      0.0232
133      0.0000      0.0055      0.0000      0.0000      0.0000      0.0000      0.0000      0.0000      0.0034
134      0.0000      0.0064      0.0000      0.0000      0.0000      0.0000      0.0000      0.0000      0.0598
135      0.0000      0.0071      0.0833      0.0000      0.0000      0.0000      0.0000      0.0000      0.0000
136      0.0000      0.0075      0.0000      0.0000      0.0000      0.0000      0.0000      0.0000      0.0000
137      0.0000      0.0106      0.0000      0.0000      0.0000      0.0000      0.0000      0.0000      0.0000
138      0.0000      0.0109      0.0000      0.0000      0.0000      0.0000      0.0000      0.0000      0.0000
139      0.0000      0.0226      0.0000      0.0466      0.0000      0.0000      0.0000      0.0000      0.0125
140      0.0000      0.0589      0.0628      0.0000      0.0000      0.0484      0.0000      0.0000      0.0145
141      0.0005      0.8043      0.0000      0.4432      0.2765      0.3831      0.0621      0.4912      0.2011
142      0.0000      0.1304      0.2242      0.0000      0.2402      0.0000      0.0763      0.0000      0.0780
143      0.0000      0.1786      0.3018      0.2473      0.4244      0.0000      0.5452      0.0000      0.2876
144      0.0000      0.0437      0.0000      0.0000      0.0000      0.0000      0.0000      0.0000      0.0000
145      0.0000      0.0232      0.0000      0.0000      0.0000      0.0000      0.0000      0.0000      0.0124
146      0.0000      0.0222      0.0000      0.0021      0.0000      0.0000      0.0000      0.0000      0.0930
147      0.0000      0.0140      0.0000      0.0000      0.0000      0.0000      0.0000      0.0000      0.0000
148      0.0000      0.0082      0.0000      0.0000      0.0009      0.0000      0.0000      0.0000      0.0000
149      0.0000      0.0090      0.0000      0.0000      0.0000      0.0000      0.0000      0.0000      0.0000
150      0.0000      0.0096      0.0017      0.0000      0.0030      0.0000      0.0000      0.0000      0.0000

# j      m_j: min, <> & last-chain-values for 1 ...  7 chains
  1  0.0000E+00  2.0883E-05  1.7895E-05  0.0000E+00  0.0000E+00  0.0000E+00  0.0000E+00  0.0000E+00  0.0000E+00
  2  3.8132E-03  2.8993E-03  2.8908E-03  3.0018E-03  2.8634E-03  3.0180E-03  3.0151E-03  3.0601E-03  3.0040E-03
  3  1.6471E-03  2.7259E-03  2.5026E-03  2.8190E-03  2.7545E-03  2.8452E-03  2.4104E-03  2.5516E-03  2.7658E-03
  4  0.0000E+00  1.5941E-05  0.0000E+00  2.7716E-06  0.0000E+00  0.0000E+00  1.8524E-04  0.0000E+00  0.0000E+00
  5  0.0000E+00  1.7578E-05  0.0000E+00  0.0000E+00  0.0000E+00  0.0000E+00  0.0000E+00  0.0000E+00  0.0000E+00
  6  0.0000E+00  3.7674E-05  0.0000E+00  0.0000E+00  0.0000E+00  0.0000E+00  0.0000E+00  0.0000E+00  0.0000E+00
  7  0.0000E+00  5.7772E-05  0.0000E+00  0.0000E+00  0.0000E+00  0.0000E+00  0.0000E+00  0.0000E+00  0.0000E+00
  8  0.0000E+00  7.4341E-05  0.0000E+00  0.0000E+00  3.4760E-04  0.0000E+00  0.0000E+00  0.0000E+00  0.0000E+00
  9  0.0000E+00  1.0760E-04  0.0000E+00  0.0000E+00  2.0115E-04  0.0000E+00  1.4243E-04  0.0000E+00  0.0000E+00
 10  0.0000E+00  8.4813E-05  0.0000E+00  0.0000E+00  0.0000E+00  4.8657E-04  0.0000E+00  0.0000E+00  0.0000E+00
 11  0.0000E+00  1.1044E-04  0.0000E+00  0.0000E+00  0.0000E+00  0.0000E+00  0.0000E+00  0.0000E+00  0.0000E+00
 12  0.0000E+00  1.8551E-04  0.0000E+00  0.0000E+00  1.1769E-03  0.0000E+00  0.0000E+00  0.0000E+00  0.0000E+00
 13  0.0000E+00  2.5636E-04  0.0000E+00  0.0000E+00  6.4992E-04  0.0000E+00  0.0000E+00  0.0000E+00  0.0000E+00
 14  0.0000E+00  3.2245E-04  0.0000E+00  0.0000E+00  0.0000E+00  0.0000E+00  0.0000E+00  0.0000E+00  9.2298E-05
 15  0.0000E+00  6.2164E-04  0.0000E+00  0.0000E+00  0.0000E+00  0.0000E+00  0.0000E+00  0.0000E+00  8.3583E-04
 16  0.0000E+00  1.5358E-03  1.2406E-02  0.0000E+00  0.0000E+00  0.0000E+00  0.0000E+00  3.8181E-04  0.0000E+00
 17  0.0000E+00  1.2060E-03  0.0000E+00  0.0000E+00  0.0000E+00  0.0000E+00  0.0000E+00  0.0000E+00  0.0000E+00
 18  0.0000E+00  3.8902E-03  0.0000E+00  0.0000E+00  0.0000E+00  3.9950E-03  8.4115E-03  3.1227E-02  1.0057E-02
 19  0.0000E+00  8.4742E-03  0.0000E+00  0.0000E+00  0.0000E+00  1.5012E-02  5.2156E-02  2.8457E-02  4.3382E-02
 20  0.0000E+00  2.3400E-02  0.0000E+00  0.0000E+00  6.8319E-02  0.0000E+00  0.0000E+00  6.8608E-02  0.0000E+00
 21  0.0000E+00  2.6361E-02  1.7302E-02  0.0000E+00  0.0000E+00  0.0000E+00  6.8584E-02  1.8748E-02  0.0000E+00
 22  0.0000E+00  4.8488E-02  1.8599E-01  5.5976E-03  1.1944E-01  4.6093E-02  1.5212E-01  0.0000E+00  9.1979E-02
 23  0.0000E+00  4.3116E-02  0.0000E+00  3.4077E-02  8.9461E-02  1.9385E-01  1.8523E-01  1.1531E-01  7.2863E-02
 24  0.0000E+00  6.4525E-02  1.4260E-02  8.8398E-02  0.0000E+00  0.0000E+00  0.0000E+00  0.0000E+00  1.8018E-01
 25  2.0783E-01  1.2192E-01  3.6977E-01  3.4384E-01  5.1664E-02  1.5814E-01  1.7677E-01  0.0000E+00  4.2539E-02
 26  0.0000E+00  3.2750E-05  0.0000E+00  0.0000E+00  0.0000E+00  0.0000E+00  0.0000E+00  1.6393E-05  0.0000E+00
 27  0.0000E+00  1.5635E-05  3.5032E-06  0.0000E+00  0.0000E+00  0.0000E+00  9.0531E-06  0.0000E+00  0.0000E+00
 28  0.0000E+00  1.9666E-05  0.0000E+00  0.0000E+00  0.0000E+00  0.0000E+00  1.6157E-04  1.6839E-05  0.0000E+00
 29  0.0000E+00  2.2474E-05  2.2995E-04  0.0000E+00  0.0000E+00  0.0000E+00  0.0000E+00  0.0000E+00  0.0000E+00
 30  0.0000E+00  2.1965E-05  0.0000E+00  0.0000E+00  0.0000E+00  0.0000E+00  0.0000E+00  0.0000E+00  0.0000E+00
 31  0.0000E+00  1.9413E-05  0.0000E+00  0.0000E+00  0.0000E+00  0.0000E+00  1.5548E-04  0.0000E+00  0.0000E+00
 32  0.0000E+00  3.1647E-05  5.5578E-04  0.0000E+00  8.0448E-05  0.0000E+00  0.0000E+00  1.0875E-05  0.0000E+00
 33  0.0000E+00  7.0737E-05  0.0000E+00  0.0000E+00  0.0000E+00  0.0000E+00  0.0000E+00  0.0000E+00  0.0000E+00
 34  0.0000E+00  1.5924E-04  8.0728E-04  0.0000E+00  1.1709E-04  0.0000E+00  0.0000E+00  2.1158E-04  0.0000E+00
 35  0.0000E+00  8.8467E-05  0.0000E+00  0.0000E+00  0.0000E+00  0.0000E+00  0.0000E+00  0.0000E+00  8.3459E-04
 36  0.0000E+00  1.2552E-04  3.2342E-04  0.0000E+00  0.0000E+00  4.4358E-04  1.1662E-03  0.0000E+00  0.0000E+00
 37  0.0000E+00  2.2577E-04  0.0000E+00  1.8797E-03  0.0000E+00  1.0625E-03  0.0000E+00  0.0000E+00  0.0000E+00
 38  0.0000E+00  2.4107E-04  0.0000E+00  0.0000E+00  0.0000E+00  0.0000E+00  0.0000E+00  0.0000E+00  0.0000E+00
 39  0.0000E+00  5.0078E-04  0.0000E+00  0.0000E+00  0.0000E+00  0.0000E+00  0.0000E+00  0.0000E+00  0.0000E+00
 40  0.0000E+00  7.7503E-04  0.0000E+00  6.9552E-04  0.0000E+00  0.0000E+00  0.0000E+00  0.0000E+00  0.0000E+00
 41  0.0000E+00  1.8430E-03  0.0000E+00  2.5288E-03  0.0000E+00  0.0000E+00  1.5200E-03  4.0804E-04  0.0000E+00
 42  0.0000E+00  2.3902E-03  0.0000E+00  0.0000E+00  0.0000E+00  1.4994E-03  1.8859E-03  0.0000E+00  0.0000E+00
 43  0.0000E+00  6.2321E-03  4.4637E-03  5.4729E-03  0.0000E+00  2.3393E-02  0.0000E+00  0.0000E+00  0.0000E+00
 44  2.2149E-01  1.0486E-01  9.3513E-02  1.7955E-01  9.9951E-02  1.5024E-01  5.1729E-02  1.1126E-01  1.9806E-01
 45  5.1445E+00  4.7183E+00  4.7445E+00  4.7565E+00  5.0492E+00  4.7213E+00  4.7503E+00  4.8074E+00  4.7785E+00
 46  4.1297E+00  3.7337E+00  3.8341E+00  3.8314E+00  3.7730E+00  3.7418E+00  3.7478E+00  3.8892E+00  3.7898E+00
 47  4.8290E+00  5.0328E+00  4.9483E+00  5.0097E+00  4.8775E+00  5.3173E+00  4.8780E+00  5.2891E+00  5.0383E+00
 48  4.1479E-03  6.0344E-01  4.8598E-01  5.9389E-01  4.0201E-01  4.9917E-01  5.7125E-01  4.5930E-01  6.1166E-01
 49  0.0000E+00  1.5214E-01  8.6527E-02  3.3866E-02  2.5483E-01  0.0000E+00  2.1519E-01  0.0000E+00  0.0000E+00
 50  0.0000E+00  8.3013E-02  0.0000E+00  0.0000E+00  8.3587E-02  4.3760E-02  2.4279E-01  6.8807E-02  0.0000E+00
 51  0.0000E+00  1.8781E-05  0.0000E+00  0.0000E+00  0.0000E+00  7.4978E-05  4.5788E-05  0.0000E+00  0.0000E+00
 52  0.0000E+00  9.8855E-06  7.6959E-05  0.0000E+00  0.0000E+00  0.0000E+00  0.0000E+00  0.0000E+00  0.0000E+00
 53  0.0000E+00  1.2012E-05  0.0000E+00  0.0000E+00  0.0000E+00  0.0000E+00  0.0000E+00  0.0000E+00  0.0000E+00
 54  0.0000E+00  1.5574E-05  0.0000E+00  0.0000E+00  0.0000E+00  0.0000E+00  0.0000E+00  1.1418E-04  0.0000E+00
 55  0.0000E+00  2.5048E-05  3.0661E-05  0.0000E+00  0.0000E+00  0.0000E+00  0.0000E+00  0.0000E+00  0.0000E+00
 56  0.0000E+00  3.4148E-05  0.0000E+00  0.0000E+00  0.0000E+00  0.0000E+00  0.0000E+00  0.0000E+00  0.0000E+00
 57  0.0000E+00  6.5169E-05  0.0000E+00  3.8773E-04  0.0000E+00  0.0000E+00  0.0000E+00  0.0000E+00  0.0000E+00
 58  0.0000E+00  6.2470E-05  0.0000E+00  6.6677E-04  0.0000E+00  0.0000E+00  0.0000E+00  0.0000E+00  0.0000E+00
 59  0.0000E+00  7.3060E-05  0.0000E+00  0.0000E+00  2.8130E-04  0.0000E+00  0.0000E+00  0.0000E+00  1.2973E-03
 60  0.0000E+00  1.0813E-04  0.0000E+00  0.0000E+00  0.0000E+00  0.0000E+00  0.0000E+00  0.0000E+00  2.8553E-04
 61  0.0000E+00  1.8726E-04  0.0000E+00  0.0000E+00  6.4698E-05  0.0000E+00  0.0000E+00  0.0000E+00  0.0000E+00
 62  0.0000E+00  1.2598E-04  0.0000E+00  0.0000E+00  0.0000E+00  0.0000E+00  1.1752E-03  3.2875E-04  0.0000E+00
 63  0.0000E+00  3.7663E-04  0.0000E+00  0.0000E+00  0.0000E+00  1.0747E-03  0.0000E+00  0.0000E+00  0.0000E+00
 64  0.0000E+00  1.0699E-03  0.0000E+00  0.0000E+00  0.0000E+00  4.9701E-04  2.9909E-03  4.7239E-03  2.7098E-03
 65  0.0000E+00  1.6774E-03  0.0000E+00  0.0000E+00  0.0000E+00  0.0000E+00  6.8639E-04  0.0000E+00  0.0000E+00
 66  0.0000E+00  3.0155E-03  0.0000E+00  5.0769E-03  0.0000E+00  1.8317E-02  2.7865E-03  0.0000E+00  1.0900E-03
 67  0.0000E+00  3.9851E-03  3.6479E-03  0.0000E+00  0.0000E+00  0.0000E+00  0.0000E+00  0.0000E+00  1.9135E-02
 68  0.0000E+00  2.5669E-02  1.1362E-01  0.0000E+00  1.3814E-01  4.0664E-02  0.0000E+00  0.0000E+00  0.0000E+00
 69  0.0000E+00  6.7163E-02  0.0000E+00  0.0000E+00  1.3545E-01  6.3450E-02  0.0000E+00  1.4201E-01  2.9283E-02
 70  0.0000E+00  9.3156E-02  0.0000E+00  0.0000E+00  6.7060E-02  0.0000E+00  0.0000E+00  0.0000E+00  2.4596E-02
 71  0.0000E+00  2.3825E-01  1.1208E-02  0.0000E+00  1.1262E-01  1.7686E-01  7.5643E-01  1.6647E-01  3.7489E-02
 72  0.0000E+00  2.4148E-01  0.0000E+00  0.0000E+00  2.4074E-01  1.4467E-01  1.0281E-02  0.0000E+00  1.9922E-01
 73  0.0000E+00  1.3628E-01  1.1081E-01  0.0000E+00  1.1650E-01  0.0000E+00  9.7648E-02  0.0000E+00  0.0000E+00
 74  0.0000E+00  1.3104E-01  9.9897E-02  0.0000E+00  1.5277E-01  0.0000E+00  0.0000E+00  3.2309E-01  0.0000E+00
 75  0.0000E+00  1.3999E-01  1.4915E-01  7.7645E-02  1.8476E-02  0.0000E+00  0.0000E+00  2.5170E-01  5.3337E-02
 76  0.0000E+00  1.0845E-05  0.0000E+00  0.0000E+00  0.0000E+00  0.0000E+00  0.0000E+00  0.0000E+00  0.0000E+00
 77  0.0000E+00  9.5476E-06  0.0000E+00  0.0000E+00  0.0000E+00  0.0000E+00  0.0000E+00  0.0000E+00  0.0000E+00
 78  0.0000E+00  9.5389E-06  0.0000E+00  0.0000E+00  0.0000E+00  0.0000E+00  0.0000E+00  5.3912E-06  0.0000E+00
 79  0.0000E+00  1.5174E-05  0.0000E+00  0.0000E+00  0.0000E+00  0.0000E+00  0.0000E+00  0.0000E+00  0.0000E+00
 80  0.0000E+00  1.8204E-05  0.0000E+00  9.7130E-05  0.0000E+00  0.0000E+00  0.0000E+00  0.0000E+00  0.0000E+00
 81  0.0000E+00  1.7122E-05  1.2922E-04  0.0000E+00  0.0000E+00  0.0000E+00  0.0000E+00  1.4843E-05  0.0000E+00
 82  0.0000E+00  2.8588E-05  0.0000E+00  0.0000E+00  0.0000E+00  0.0000E+00  0.0000E+00  0.0000E+00  0.0000E+00
 83  0.0000E+00  5.4190E-05  0.0000E+00  0.0000E+00  6.3689E-04  0.0000E+00  0.0000E+00  0.0000E+00  4.0339E-04
 84  0.0000E+00  4.2296E-05  0.0000E+00  0.0000E+00  0.0000E+00  0.0000E+00  0.0000E+00  0.0000E+00  0.0000E+00
 85  0.0000E+00  1.0037E-04  0.0000E+00  0.0000E+00  0.0000E+00  0.0000E+00  0.0000E+00  0.0000E+00  0.0000E+00
 86  0.0000E+00  1.4389E-04  1.1152E-03  3.3430E-04  0.0000E+00  0.0000E+00  0.0000E+00  0.0000E+00  0.0000E+00
 87  0.0000E+00  2.4485E-04  0.0000E+00  0.0000E+00  0.0000E+00  0.0000E+00  0.0000E+00  0.0000E+00  0.0000E+00
 88  0.0000E+00  2.0601E-04  7.4126E-04  0.0000E+00  0.0000E+00  0.0000E+00  0.0000E+00  0.0000E+00  0.0000E+00
 89  0.0000E+00  5.8306E-04  0.0000E+00  0.0000E+00  0.0000E+00  0.0000E+00  0.0000E+00  0.0000E+00  0.0000E+00
 90  0.0000E+00  1.5218E-03  0.0000E+00  7.8633E-05  5.7340E-04  0.0000E+00  0.0000E+00  0.0000E+00  0.0000E+00
 91  0.0000E+00  4.7373E-03  2.2340E-02  1.1407E-02  2.4738E-02  0.0000E+00  0.0000E+00  0.0000E+00  0.0000E+00
 92  0.0000E+00  6.5531E-03  2.8589E-03  0.0000E+00  0.0000E+00  1.0515E-02  0.0000E+00  0.0000E+00  0.0000E+00
 93  7.1215E-04  6.6838E-02  4.7482E-02  2.5080E-01  0.0000E+00  5.4527E-02  0.0000E+00  0.0000E+00  3.2472E-02
 94  0.0000E+00  2.9748E-01  4.8251E-01  1.1913E-01  3.4696E-01  2.1569E-01  3.6488E-01  5.8451E-01  5.4844E-02
 95  2.0686E+00  8.3282E-01  8.5045E-01  1.2027E+00  9.8462E-01  1.4391E+00  8.0181E-01  1.3161E+00  2.4412E+00
 96  2.4675E+00  1.1673E+00  1.9134E+00  2.2454E+00  1.0289E+00  1.6577E+00  8.2442E-01  1.7097E+00  1.1672E+00
 97  1.2554E+00  9.3248E-01  1.2744E+00  4.8355E-01  8.2481E-01  1.1674E+00  1.3201E+00  8.8211E-01  8.0666E-01
 98  2.1572E+00  1.1315E+00  1.7898E+00  1.5871E+00  9.3961E-01  9.6390E-01  2.2683E+00  9.7109E-01  1.3183E+00
 99  1.7558E+00  1.3968E+00  1.7719E+00  1.7276E+00  1.2993E+00  1.4366E+00  1.5044E+00  4.1523E-01  1.2052E+00
100  3.2730E-02  8.2514E-01  7.4594E-01  1.5182E+00  1.5967E+00  8.3485E-01  6.9274E-01  5.7368E-01  6.1233E-01
101  0.0000E+00  9.3107E-06  0.0000E+00  0.0000E+00  0.0000E+00  0.0000E+00  0.0000E+00  0.0000E+00  0.0000E+00
102  0.0000E+00  6.6786E-06  0.0000E+00  1.2747E-05  0.0000E+00  0.0000E+00  8.2101E-05  0.0000E+00  8.9438E-06
103  0.0000E+00  1.2122E-05  0.0000E+00  0.0000E+00  0.0000E+00  0.0000E+00  0.0000E+00  0.0000E+00  1.0167E-05
104  0.0000E+00  1.0871E-05  0.0000E+00  0.0000E+00  3.4001E-05  0.0000E+00  0.0000E+00  0.0000E+00  0.0000E+00
105  0.0000E+00  1.9711E-05  0.0000E+00  0.0000E+00  0.0000E+00  0.0000E+00  0.0000E+00  0.0000E+00  0.0000E+00
106  0.0000E+00  2.1443E-05  0.0000E+00  0.0000E+00  0.0000E+00  0.0000E+00  0.0000E+00  0.0000E+00  0.0000E+00
107  0.0000E+00  3.5500E-05  1.0613E-05  0.0000E+00  0.0000E+00  9.0674E-05  0.0000E+00  0.0000E+00  0.0000E+00
108  0.0000E+00  4.6511E-05  0.0000E+00  0.0000E+00  0.0000E+00  0.0000E+00  0.0000E+00  0.0000E+00  0.0000E+00
109  0.0000E+00  8.5577E-05  0.0000E+00  0.0000E+00  0.0000E+00  0.0000E+00  0.0000E+00  0.0000E+00  0.0000E+00
110  0.0000E+00  7.6813E-05  0.0000E+00  0.0000E+00  0.0000E+00  7.3111E-04  0.0000E+00  0.0000E+00  0.0000E+00
111  0.0000E+00  1.7887E-04  0.0000E+00  6.7288E-04  0.0000E+00  0.0000E+00  0.0000E+00  0.0000E+00  0.0000E+00
112  0.0000E+00  1.6424E-04  0.0000E+00  0.0000E+00  0.0000E+00  0.0000E+00  0.0000E+00  0.0000E+00  0.0000E+00
113  0.0000E+00  2.7621E-04  1.0610E-03  0.0000E+00  0.0000E+00  0.0000E+00  0.0000E+00  0.0000E+00  0.0000E+00
114  0.0000E+00  6.5326E-04  0.0000E+00  0.0000E+00  0.0000E+00  0.0000E+00  1.7860E-03  0.0000E+00  0.0000E+00
115  0.0000E+00  3.1884E-03  0.0000E+00  0.0000E+00  0.0000E+00  0.0000E+00  0.0000E+00  0.0000E+00  0.0000E+00
116  0.0000E+00  9.8947E-03  5.1350E-03  0.0000E+00  1.7886E-02  0.0000E+00  2.0066E-02  2.2513E-02  2.1170E-02
117  0.0000E+00  1.1746E-02  0.0000E+00  4.9332E-02  0.0000E+00  0.0000E+00  0.0000E+00  0.0000E+00  0.0000E+00
118  0.0000E+00  8.7407E-02  0.0000E+00  0.0000E+00  0.0000E+00  2.3922E-02  0.0000E+00  0.0000E+00  0.0000E+00
119  0.0000E+00  1.4175E-01  0.0000E+00  0.0000E+00  1.0678E-01  2.3522E-01  2.0338E-01  0.0000E+00  6.3780E-02
120  5.3232E-04  4.0075E-01  3.7799E-01  3.1785E-01  8.3606E-01  1.0313E+00  4.3440E-01  4.5734E-01  0.0000E+00
121  7.6767E+00  8.6905E+00  8.4928E+00  8.7473E+00  8.5135E+00  8.0730E+00  8.5574E+00  8.7509E+00  8.7462E+00
122  1.6633E+01  1.7689E+01  1.7024E+01  1.7211E+01  1.7059E+01  1.7623E+01  1.7173E+01  1.8147E+01  1.8224E+01
123  5.6439E+00  6.5295E+00  6.4898E+00  6.6472E+00  6.4791E+00  6.3204E+00  6.3827E+00  6.5055E+00  6.8096E+00
124  1.1580E+01  1.1351E+01  1.1439E+01  1.1083E+01  1.1366E+01  1.1020E+01  1.1158E+01  1.1683E+01  1.1263E+01
125  3.4185E+01  3.1953E+01  3.1735E+01  3.1581E+01  3.2344E+01  3.2429E+01  3.1986E+01  3.2087E+01  3.1584E+01
126  0.0000E+00  7.4019E-06  0.0000E+00  0.0000E+00  0.0000E+00  0.0000E+00  0.0000E+00  1.8805E-05  0.0000E+00
127  0.0000E+00  3.9818E-06  0.0000E+00  0.0000E+00  0.0000E+00  0.0000E+00  0.0000E+00  0.0000E+00  0.0000E+00
128  0.0000E+00  1.1114E-05  0.0000E+00  0.0000E+00  0.0000E+00  0.0000E+00  0.0000E+00  0.0000E+00  0.0000E+00
129  0.0000E+00  1.7291E-05  0.0000E+00  0.0000E+00  0.0000E+00  0.0000E+00  0.0000E+00  0.0000E+00  0.0000E+00
130  0.0000E+00  1.6380E-05  0.0000E+00  0.0000E+00  0.0000E+00  0.0000E+00  0.0000E+00  2.0978E-04  0.0000E+00
131  0.0000E+00  2.2133E-05  0.0000E+00  0.0000E+00  0.0000E+00  0.0000E+00  0.0000E+00  0.0000E+00  0.0000E+00
132  0.0000E+00  2.1991E-05  0.0000E+00  0.0000E+00  0.0000E+00  0.0000E+00  0.0000E+00  0.0000E+00  1.0779E-04
133  0.0000E+00  3.7331E-05  0.0000E+00  0.0000E+00  0.0000E+00  0.0000E+00  0.0000E+00  0.0000E+00  2.2718E-05
134  0.0000E+00  5.4544E-05  0.0000E+00  0.0000E+00  0.0000E+00  0.0000E+00  0.0000E+00  0.0000E+00  5.1227E-04
135  0.0000E+00  7.2839E-05  8.5537E-04  0.0000E+00  0.0000E+00  0.0000E+00  0.0000E+00  0.0000E+00  0.0000E+00
136  0.0000E+00  1.1171E-04  0.0000E+00  0.0000E+00  0.0000E+00  0.0000E+00  0.0000E+00  0.0000E+00  0.0000E+00
137  0.0000E+00  2.1570E-04  0.0000E+00  0.0000E+00  0.0000E+00  0.0000E+00  0.0000E+00  0.0000E+00  0.0000E+00
138  0.0000E+00  3.6723E-04  0.0000E+00  0.0000E+00  0.0000E+00  0.0000E+00  0.0000E+00  0.0000E+00  0.0000E+00
139  0.0000E+00  1.4371E-03  0.0000E+00  2.9668E-03  0.0000E+00  0.0000E+00  0.0000E+00  0.0000E+00  7.9670E-04
140  0.0000E+00  8.6835E-03  9.2351E-03  0.0000E+00  0.0000E+00  7.1567E-03  0.0000E+00  0.0000E+00  2.1355E-03
141  1.1593E-04  1.8163E-01  0.0000E+00  1.0005E-01  6.2387E-02  8.6638E-02  1.3915E-02  1.1105E-01  4.5416E-02
142  0.0000E+00  3.5032E-02  6.0023E-02  0.0000E+00  6.4462E-02  0.0000E+00  2.0340E-02  0.0000E+00  2.0961E-02
143  0.0000E+00  9.5417E-02  1.6060E-01  1.3205E-01  2.2649E-01  0.0000E+00  2.8909E-01  0.0000E+00  1.5369E-01
144  0.0000E+00  4.5806E-02  0.0000E+00  0.0000E+00  0.0000E+00  0.0000E+00  0.0000E+00  0.0000E+00  0.0000E+00
145  0.0000E+00  3.6251E-02  0.0000E+00  0.0000E+00  0.0000E+00  0.0000E+00  0.0000E+00  0.0000E+00  1.9443E-02
146  0.0000E+00  4.1420E-02  0.0000E+00  3.8837E-03  0.0000E+00  0.0000E+00  0.0000E+00  0.0000E+00  1.7357E-01
147  0.0000E+00  3.5184E-02  0.0000E+00  0.0000E+00  0.0000E+00  0.0000E+00  0.0000E+00  0.0000E+00  0.0000E+00
148  0.0000E+00  2.7935E-02  0.0000E+00  0.0000E+00  3.2000E-03  0.0000E+00  0.0000E+00  0.0000E+00  0.0000E+00
149  0.0000E+00  3.5982E-02  0.0000E+00  0.0000E+00  0.0000E+00  0.0000E+00  0.0000E+00  0.0000E+00  0.0000E+00
150  0.0000E+00  4.5322E-02  8.1557E-03  0.0000E+00  1.4206E-02  0.0000E+00  0.0000E+00  0.0000E+00  0.0000E+00

# AV, chi2 & Mass for <> & i_chain = 1 ...  7 solutions
AV       0.9463      0.9497      0.9498      0.9488      0.9482      0.9492      0.9487      0.9492      0.9483
chi2 2.5810E+00  2.6451E+00  2.6192E+00  2.6165E+00  2.6251E+00  2.6175E+00  2.6224E+00  2.6201E+00  2.6180E+00
Mass 4.5547E-09  4.5199E-09  4.5371E-09  4.5161E-09  4.5150E-09  4.5106E-09  4.5472E-09  4.5113E-09  4.5097E-09
 -13.15                                  [v0_min (km/s) before EX0s...]
  44.65                                  [vd_min (km/s) before EX0s...]


## Synthetic spectrum (Best Model) ##l_obs f_obs f_syn wei
 3070    [Nl_obs]
 3359.00    0.15692   0.34911   -1.000
 3360.00    0.19556   0.32745   -1.000
 3361.00    0.19788   0.33879   -1.000
 3362.00    0.20908   0.37368   -1.000
 3363.00    0.22362   0.41472   -1.000
 3364.00    0.24350   0.43943   -1.000
 3365.00    0.25806   0.43739   -1.000
 3366.00    0.26367   0.42039   -1.000
 3367.00    0.25836   0.40232   -1.000
 3368.00    0.24916   0.38521   -1.000
 3369.00    0.23892   0.37076   -1.000
 3370.00    0.23524   0.35385   -1.000
 3371.00    0.22970   0.34495   -1.000
 3372.00    0.23308   0.35351   -1.000
 3373.00    0.24803   0.37897   -1.000
 3374.00    0.26448   0.41242   -1.000
 3375.00    0.27600   0.44318   -1.000
 3376.00    0.28874   0.45801   -1.000
 3377.00    0.30085   0.45042   -1.000
 3378.00    0.30497   0.42719   -1.000
 3379.00    0.29976   0.40737   -1.000
 3380.00    0.28705   0.40228   -1.000
 3381.00    0.28540   0.41191   -1.000
 3382.00    0.28959   0.42541   -1.000
 3383.00    0.29533   0.43770   -1.000
 3384.00    0.29953   0.44805   -1.000
 3385.00    0.31091   0.45621   -1.000
 3386.00    0.31527   0.45352   -1.000
 3387.00    0.31513   0.44404   -1.000
 3388.00    0.32745   0.43877   -1.000
 3389.00    0.33775   0.44329   -1.000
 3390.00    0.33652   0.44700   -1.000
 3391.00    0.33163   0.44033   -1.000
 3392.00    0.33343   0.42617   -1.000
 3393.00    0.33168   0.42056   -1.000
 3394.00    0.33315   0.43127   -1.000
 3395.00    0.34549   0.45261   -1.000
 3396.00    0.36483   0.47360   -1.000
 3397.00    0.38199   0.49194   -1.000
 3398.00    0.39841   0.50705   -1.000
 3399.00    0.41242   0.51432   -1.000
 3400.00    0.41199   0.51104   -1.000
 3401.00    0.41461   0.49735   -1.000
 3402.00    0.40896   0.47711   -1.000
 3403.00    0.39919   0.46254   -1.000
 3404.00    0.39988   0.45399   52.156
 3405.00    0.39331   0.45152   -1.000
 3406.00    0.38556   0.44763   -1.000
 3407.00    0.38128   0.44054   -1.000
 3408.00    0.37399   0.43681   -1.000
 3409.00    0.37720   0.44255   -1.000
 3410.00    0.37969   0.45324   -1.000
 3411.00    0.38504   0.45074   -1.000
 3412.00    0.38559   0.43422   53.989
 3413.00    0.38373   0.41452   55.279
 3414.00    0.37740   0.40770   55.382
 3415.00    0.37410   0.42221   54.248
 3416.00    0.37818   0.44542   -1.000
 3417.00    0.39098   0.46874   -1.000
 3418.00    0.41048   0.48703   -1.000
 3419.00    0.42082   0.50085   -1.000
 3420.00    0.42763   0.50508   -1.000
 3421.00    0.43664   0.49444   46.423
 3422.00    0.43113   0.47067   47.567
 3423.00    0.42697   0.45351   48.715
 3424.00    0.42297   0.45047   47.817
 3425.00    0.42155   0.45672   46.525
 3426.00    0.43275   0.46573   46.076
 3427.00    0.43380   0.47957   -1.000
 3428.00    0.44408   0.50128   -1.000
 3429.00    0.45667   0.52156   -1.000
 3430.00    0.46332   0.52164   -1.000
 3431.00    0.46243   0.49980   -1.000
 3432.00    0.45297   0.47396   57.445
 3433.00    0.44696   0.46552   45.965
 3434.00    0.44473   0.47844   -1.000
 3435.00    0.44613   0.49200   -1.000
 3436.00    0.45139   0.48982   56.979
 3437.00    0.44185   0.47119   47.572
 3438.00    0.42762   0.44384   50.308
 3439.00    0.40821   0.41297   54.114
 3440.00    0.37913   0.38631   56.753
 3441.00    0.36248   0.36721   57.295
 3442.00    0.35264   0.36425   57.115
 3443.00    0.36120   0.37397   55.246
 3444.00    0.37511   0.39017   52.377
 3445.00    0.39036   0.40942   49.480
 3446.00    0.40901   0.43385   47.556
 3447.00    0.42836   0.45997   -1.000
 3448.00    0.44808   0.48461   -1.000
 3449.00    0.46314   0.49982   -1.000
 3450.00    0.47044   0.49476   -1.000
 3451.00    0.47233   0.47499  375.068
 3452.00    0.46249   0.46026  375.068
 3453.00    0.45636   0.46000  375.068
 3454.00    0.46095   0.47198   -1.000
 3455.00    0.47252   0.48106   -1.000
 3456.00    0.47883   0.47674  375.068
 3457.00    0.46770   0.46230  375.068
 3458.00    0.45642   0.44368   56.802
 3459.00    0.45061   0.42899   46.516
 3460.00    0.44242   0.41884   46.396
 3461.00    0.43809   0.42148  158.045
 3462.00    0.44467   0.43888  375.068
 3463.00    0.45698   0.45793  375.068
 3464.00    0.47415   0.46261   -1.000
 3465.00    0.48386   0.45744   -1.000
 3466.00    0.48269   0.45832   -1.000
 3467.00    0.48121   0.47212  375.068
 3468.00    0.48459   0.49317   -1.000
 3469.00    0.50056   0.50864   -1.000
 3470.00    0.51535   0.51154  375.068
 3471.00    0.51454   0.49925   -1.000
 3472.00    0.49971   0.47580   -1.000
 3473.00    0.48094   0.44412   -1.000
 3474.00    0.45708   0.41743   57.046
 3475.00    0.43265   0.40408   47.791
 3476.00    0.42662   0.41238   47.301
 3477.00    0.44017   0.43769  160.660
 3478.00    0.46363   0.46497  375.068
 3479.00    0.49352   0.48384   -1.000
 3480.00    0.50715   0.49286   -1.000
 3481.00    0.51456   0.49013   -1.000
 3482.00    0.51038   0.48018   -1.000
 3483.00    0.50114   0.47128   -1.000
 3484.00    0.49553   0.47214   -1.000
 3485.00    0.49724   0.48634   -1.000
 3486.00    0.51742   0.50115   -1.000
 3487.00    0.52763   0.50256   -1.000
 3488.00    0.52324   0.48415   -1.000
 3489.00    0.49854   0.45651   -1.000
 3490.00    0.47489   0.43689   -1.000
 3491.00    0.46753   0.43693   -1.000
 3492.00    0.46906   0.44985   -1.000
 3493.00    0.47359   0.46100   -1.000
 3494.00    0.48128   0.46351   -1.000
 3495.00    0.48211   0.45493   -1.000
 3496.00    0.47184   0.44724   -1.000
 3497.00    0.46958   0.45284   -1.000
 3498.00    0.48253   0.47205   -1.000
 3499.00    0.50992   0.49425   -1.000
 3500.00    0.53619   0.50499   -1.000
 3501.00    0.54954   0.51201   -1.000
 3502.00    0.55447   0.52152   -1.000
 3503.00    0.55699   0.52607   -1.000
 3504.00    0.55831   0.52104   -1.000
 3505.00    0.54582   0.50831   -1.000
 3506.00    0.53151   0.49762   -1.000
 3507.00    0.52669   0.49350   -1.000
 3508.00    0.52945   0.48953   -1.000
 3509.00    0.53478   0.48315   -1.000
 3510.00    0.52023   0.47531   -1.000
 3511.00    0.50078   0.46497   -1.000
 3512.00    0.50060   0.45201   -1.000
 3513.00    0.49501   0.44103   -1.000
 3514.00    0.48882   0.44269   -1.000
 3515.00    0.49224   0.46596   -1.000
 3516.00    0.51618   0.50324   -1.000
 3517.00    0.54386   0.53115   -1.000
 3518.00    0.55744   0.53528   -1.000
 3519.00    0.54517   0.51486   -1.000
 3520.00    0.52308   0.48778   -1.000
 3521.00    0.50795   0.46306   -1.000
 3522.00    0.48956   0.44472   -1.000
 3523.00    0.47171   0.42628   55.886
 3524.00    0.45706   0.40859   47.335
 3525.00    0.44219   0.40416   47.404
 3526.00    0.43931   0.42105  167.680
 3527.00    0.45624   0.45157  375.068
 3528.00    0.48044   0.48519  375.068
 3529.00    0.50923   0.50713  375.068
 3530.00    0.52340   0.51381   -1.000
 3531.00    0.51764   0.50955  375.068
 3532.00    0.51440   0.50293   -1.000
 3533.00    0.51541   0.49801   -1.000
 3534.00    0.52158   0.50011   -1.000
 3535.00    0.53102   0.50763   -1.000
 3536.00    0.53409   0.52041   -1.000
 3537.00    0.53484   0.53693  366.771
 3538.00    0.54030   0.55011   -1.000
 3539.00    0.55514   0.55369  363.885
 3540.00    0.55146   0.54692  370.166
 3541.00    0.53444   0.53742  374.072
 3542.00    0.53129   0.53788  372.679
 3543.00    0.53502   0.54901   -1.000
 3544.00    0.54023   0.55752   -1.000
 3545.00    0.54380   0.55669   -1.000
 3546.00    0.54181   0.54819  375.068
 3547.00    0.52901   0.54060   -1.000
 3548.00    0.52431   0.53959   -1.000
 3549.00    0.52731   0.54348   -1.000
 3550.00    0.52672   0.54636   -1.000
 3551.00    0.52457   0.54120   -1.000
 3552.00    0.51133   0.52601   -1.000
 3553.00    0.49942   0.50877   -1.000
 3554.00    0.49574   0.50277   -1.000
 3555.00    0.49356   0.50887   -1.000
 3556.00    0.49819   0.51737   -1.000
 3557.00    0.50101   0.52304   -1.000
 3558.00    0.49688   0.52341   -1.000
 3559.00    0.49386   0.52450   -1.000
 3560.00    0.49321   0.53107   -1.000
 3561.00    0.49624   0.53899   -1.000
 3562.00    0.50124   0.53801   -1.000
 3563.00    0.50503   0.51672   -1.000
 3564.00    0.48453   0.48098   55.822
 3565.00    0.44776   0.44739   48.015
 3566.00    0.42876   0.43574   47.908
 3567.00    0.42901   0.43780   47.585
 3568.00    0.42249   0.43562   48.872
 3569.00    0.41800   0.42642   49.916
 3570.00    0.40994   0.41747   48.776
 3571.00    0.41714   0.42036   46.696
 3572.00    0.43443   0.43480  171.158
 3573.00    0.45103   0.44881  375.068
 3574.00    0.45880   0.46089  375.068
 3575.00    0.46796   0.46969  375.068
 3576.00    0.47161   0.47180  375.068
 3577.00    0.46282   0.46543  375.068
 3578.00    0.45471   0.45028   57.522
 3579.00    0.43638   0.42562   51.128
 3580.00    0.41242   0.40250   54.172
 3581.00    0.38866   0.38941   54.980
 3582.00    0.37893   0.38962   55.224
 3583.00    0.37875   0.39318   56.416
 3584.00    0.37683   0.38949   58.209
 3585.00    0.36960   0.37827   59.225
 3586.00    0.36535   0.37015   56.859
 3587.00    0.37125   0.37614   53.843
 3588.00    0.38353   0.39873   51.196
 3589.00    0.40488   0.43410   46.943
 3590.00    0.43203   0.46811   -1.000
 3591.00    0.46382   0.48998   -1.000
 3592.00    0.48889   0.49478  375.068
 3593.00    0.49094   0.49600  375.068
 3594.00    0.49640   0.50573   -1.000
 3595.00    0.50828   0.52577   -1.000
 3596.00    0.52749   0.54658   -1.000
 3597.00    0.54869   0.55852   -1.000
 3598.00    0.55982   0.56641  346.023
 3599.00    0.56316   0.57146  348.537
 3600.00    0.57425   0.56467   -1.000
 3601.00    0.56049   0.54213   -1.000
 3602.00    0.53455   0.51515   -1.000
 3603.00    0.50950   0.49427   -1.000
 3604.00    0.49436   0.48661  375.068
 3605.00    0.48862   0.48524  375.068
 3606.00    0.49035   0.48011   -1.000
 3607.00    0.49429   0.46709   -1.000
 3608.00    0.47947   0.45268   -1.000
 3609.00    0.45875   0.44930   -1.000
 3610.00    0.45734   0.46028  375.068
 3611.00    0.48092   0.48044  375.068
 3612.00    0.49969   0.49717  375.068
 3613.00    0.50518   0.51214   -1.000
 3614.00    0.51650   0.52943   -1.000
 3615.00    0.53375   0.54088  375.068
 3616.00    0.53305   0.52929  375.068
 3617.00    0.50935   0.49557   -1.000
 3618.00    0.46841   0.45837   54.351
 3619.00    0.44451   0.44968  173.987
 3620.00    0.46301   0.47153   -1.000
 3621.00    0.49922   0.50740   -1.000
 3622.00    0.52837   0.53628  362.437
 3623.00    0.54379   0.55586   -1.000
 3624.00    0.55328   0.57623   -1.000
 3625.00    0.57644   0.60533   -1.000
 3626.00    0.60220   0.63471   -1.000
 3627.00    0.61672   0.64754   -1.000
 3628.00    0.61633   0.62846   -1.000
 3629.00    0.58006   0.57876  375.068
 3630.00    0.52458   0.51765  375.068
 3631.00    0.48073   0.48245  375.068
 3632.00    0.46931   0.48057   -1.000
 3633.00    0.48484   0.50180   -1.000
 3634.00    0.50054   0.52298   -1.000
 3635.00    0.51083   0.53699   -1.000
 3636.00    0.53184   0.54968   -1.000
 3637.00    0.55049   0.57065   -1.000
 3638.00    0.56762   0.59514   -1.000
 3639.00    0.59290   0.61248   -1.000
 3640.00    0.59990   0.61672   -1.000
 3641.00    0.59242   0.60464   -1.000
 3642.00    0.58097   0.58244  368.321
 3643.00    0.55921   0.56028  375.068
 3644.00    0.53717   0.54103  375.068
 3645.00    0.51985   0.52501  375.068
 3646.00    0.51179   0.51034  375.068
 3647.00    0.50356   0.49868  375.068
 3648.00    0.49352   0.49832  375.068
 3649.00    0.50336   0.51068   -1.000
 3650.00    0.52699   0.53525   -1.000
 3651.00    0.55136   0.56522   -1.000
 3652.00    0.57667   0.59486   -1.000
 3653.00    0.59627   0.61331   -1.000
 3654.00    0.60562   0.62674   -1.000
 3655.00    0.61518   0.63961   -1.000
 3656.00    0.61966   0.65386   -1.000
 3657.00    0.63224   0.66695   -1.000
 3658.00    0.64439   0.67311   -1.000
 3659.00    0.64796   0.67415   -1.000
 3660.00    0.64692   0.66879   -1.000
 3661.00    0.63829   0.65548   -1.000
 3662.00    0.62346   0.63833   -1.000
 3663.00    0.61411   0.62753   -1.000
 3664.00    0.61174   0.62635   -1.000
 3665.00    0.61926   0.63080   -1.000
 3666.00    0.61983   0.63112   -1.000
 3667.00    0.61011   0.62243   -1.000
 3668.00    0.60208   0.60737  344.743
 3669.00    0.58793   0.59721   -1.000
 3670.00    0.59081   0.60431   -1.000
 3671.00    0.60797   0.62267   -1.000
 3672.00    0.62353   0.63901   -1.000
 3673.00    0.62868   0.64641   -1.000
 3674.00    0.62990   0.64354   -1.000
 3675.00    0.62717   0.63125  332.258
 3676.00    0.61461   0.60882  342.650
 3677.00    0.59189   0.58115   -1.000
 3678.00    0.57060   0.55734   -1.000
 3679.00    0.55730   0.54698   -1.000
 3680.00    0.55777   0.55301  354.456
 3681.00    0.56866   0.56886  344.292
 3682.00    0.58343   0.58389  340.129
 3683.00    0.59663   0.58989  346.797
 3684.00    0.59551   0.58097   -1.000
 3685.00    0.57809   0.55931   -1.000
 3686.00    0.54924   0.53746   -1.000
 3687.00    0.53557   0.53494  374.790
 3688.00    0.54006   0.55539   -1.000
 3689.00    0.57484   0.59243   -1.000
 3690.00    0.60790   0.62745   -1.000
 3691.00    0.63785   0.64691  317.556
 3692.00    0.64715   0.64296  325.539
 3693.00    0.63188   0.62801  330.672
 3694.00    0.62094   0.61849  330.036
 3695.00    0.61977   0.61759  327.278
 3696.00    0.62111   0.62344  323.412
 3697.00    0.63341   0.63671  313.660
 3698.00    0.65096   0.65833  305.353
 3699.00    0.66753   0.67706  300.776
 3700.00    0.68854   0.68400  305.189
 3701.00    0.68189   0.66749   -1.000
 3702.00    0.64237   0.62559   -1.000
 3703.00    0.60255   0.56934   -1.000
 3704.00    0.55922   0.52229   -1.000
 3705.00    0.52241   0.49516   -1.000
 3706.00    0.51725   0.49244   -1.000
 3707.00    0.52463   0.50124   -1.000
 3708.00    0.53013   0.51477   -1.000
 3709.00    0.54280   0.53231   -1.000
 3710.00    0.56875   0.55529   -1.000
 3711.00    0.59272   0.58241   -1.000
 3712.00    0.61968   0.61528  308.046
 3713.00    0.65882   0.64681   -1.000
 3714.00    0.68205   0.66504   -1.000
 3715.00    0.68533   0.66543   -1.000
 3716.00    0.68117   0.64910   -1.000
 3717.00    0.65982   0.61281   -1.000
 3718.00    0.61337   0.55836   -1.000
 3719.00    0.54420   0.49472   -1.000
 3720.00    0.48266   0.43964   54.089
 3721.00    0.45259   0.42324   -1.000
 3722.00    0.46442   0.44984   -1.000
 3723.00    0.51647   0.50413   -1.000
 3724.00    0.58470   0.56140   -1.000
 3725.00    0.62978   0.59461   -1.000
 3726.00    0.63444   0.59646   -1.000
 3727.00    0.61736   0.58790   -1.000
 3728.00    0.60804   0.58867   -1.000
 3729.00    0.60715   0.59230   -1.000
 3730.00    0.60251   0.58326   -1.000
 3731.00    0.57804   0.54651   -1.000
 3732.00    0.53543   0.48383   52.841
 3733.00    0.47763   0.42362   50.507
 3734.00    0.42557   0.38208   53.023
 3735.00    0.39876   0.37387   50.986
 3736.00    0.40820   0.40031   46.461
 3737.00    0.44914   0.45188  187.092
 3738.00    0.50792   0.51152  369.550
 3739.00    0.55901   0.56850   -1.000
 3740.00    0.59778   0.60105  341.751
 3741.00    0.61635   0.60131   -1.000
 3742.00    0.60556   0.57425   -1.000
 3743.00    0.57003   0.53905   -1.000
 3744.00    0.53755   0.50544   -1.000
 3745.00    0.50803   0.48265   -1.000
 3746.00    0.48055   0.46224   53.515
 3747.00    0.46172   0.43669   49.065
 3748.00    0.43669   0.41430   49.966
 3749.00    0.41841   0.40888  208.383
 3750.00    0.44053   0.43400  375.068
 3751.00    0.50071   0.48677   -1.000
 3752.00    0.56546   0.54748   -1.000
 3753.00    0.61729   0.60431   -1.000
 3754.00    0.65894   0.64405   -1.000
 3755.00    0.68042   0.64926   -1.000
 3756.00    0.66496   0.61920   -1.000
 3757.00    0.60738   0.57142   -1.000
 3758.00    0.54949   0.53624   -1.000
 3759.00    0.53549   0.53179  375.068
 3760.00    0.56102   0.54671   -1.000
 3761.00    0.58729   0.56462   -1.000
 3762.00    0.59676   0.57087   -1.000
 3763.00    0.59751   0.56960   -1.000
 3764.00    0.59537   0.56644   -1.000
 3765.00    0.59593   0.55983   -1.000
 3766.00    0.58633   0.55010   -1.000
 3767.00    0.57291   0.54159   -1.000
 3768.00    0.57557   0.53427   -1.000
 3769.00    0.57405   0.52899   -1.000
 3770.00    0.57342   0.53415   -1.000
 3771.00    0.58222   0.55662   -1.000
 3772.00    0.61251   0.58922   -1.000
 3773.00    0.64224   0.61977   -1.000
 3774.00    0.66161   0.63576   -1.000
 3775.00    0.66022   0.64109   -1.000
 3776.00    0.66513   0.64619   -1.000
 3777.00    0.67739   0.65759   -1.000
 3778.00    0.68321   0.67667  302.144
 3779.00    0.69794   0.69739  294.710
 3780.00    0.71619   0.71418  292.153
 3781.00    0.72868   0.72213  290.367
 3782.00    0.73259   0.72282   -1.000
 3783.00    0.73413   0.71703   -1.000
 3784.00    0.73223   0.69896   -1.000
 3785.00    0.70634   0.66709   -1.000
 3786.00    0.65779   0.63149   -1.000
 3787.00    0.62399   0.60100   -1.000
 3788.00    0.60605   0.58452   -1.000
 3789.00    0.59258   0.58634  354.115
 3790.00    0.59290   0.59742  350.153
 3791.00    0.60879   0.60446  354.517
 3792.00    0.61256   0.59781   -1.000
 3793.00    0.58849   0.57448   -1.000
 3794.00    0.55868   0.54577   -1.000
 3795.00    0.53751   0.51588   -1.000
 3796.00    0.51559   0.48558   -1.000
 3797.00    0.49345   0.45912   -1.000
 3798.00    0.47843   0.45215   -1.000
 3799.00    0.49358   0.48016   -1.000
 3800.00    0.53322   0.53716  350.455
 3801.00    0.57654   0.59475   -1.000
 3802.00    0.61948   0.63956   -1.000
 3803.00    0.65460   0.66227  323.077
 3804.00    0.66380   0.66560  327.305
 3805.00    0.65333   0.65407  339.013
 3806.00    0.63769   0.64127  346.386
 3807.00    0.63200   0.64048  339.014
 3808.00    0.63516   0.65632   -1.000
 3809.00    0.65634   0.67745   -1.000
 3810.00    0.67531   0.68777   -1.000
 3811.00    0.67569   0.67443  343.266
 3812.00    0.65107   0.63880   -1.000
 3813.00    0.61116   0.59878   -1.000
 3814.00    0.57804   0.56732   -1.000
 3815.00    0.55385   0.55789  375.068
 3816.00    0.55423   0.56730   -1.000
 3817.00    0.57138   0.57860  375.068
 3818.00    0.57241   0.57132  375.068
 3819.00    0.54734   0.54731  375.068
 3820.00    0.51990   0.53022   -1.000
 3821.00    0.52286   0.53235   -1.000
 3822.00    0.54435   0.54483  375.068
 3823.00    0.54378   0.54058  375.068
 3824.00    0.51222   0.51547   54.304
 3825.00    0.47983   0.49184   48.959
 3826.00    0.46301   0.47963   48.693
 3827.00    0.46833   0.47805   47.940
 3828.00    0.47717   0.48201   47.151
 3829.00    0.48334   0.48488   47.593
 3830.00    0.48324   0.47871   49.605
 3831.00    0.46354   0.45984   53.419
 3832.00    0.43876   0.43072   55.352
 3833.00    0.41284   0.40193   54.539
 3834.00    0.40542   0.38660   52.430
 3835.00    0.41307   0.38760   51.179
 3836.00    0.42561   0.39902   52.043
 3837.00    0.43511   0.41166   53.300
 3838.00    0.43196   0.42430   52.578
 3839.00    0.43692   0.44174   49.759
 3840.00    0.45715   0.47054   -1.000
 3841.00    0.49102   0.51270   -1.000
 3842.00    0.54174   0.55705   -1.000
 3843.00    0.57824   0.59491   -1.000
 3844.00    0.59994   0.61666   -1.000
 3845.00    0.59617   0.62679   -1.000
 3846.00    0.59508   0.63392   -1.000
 3847.00    0.59526   0.63638   -1.000
 3848.00    0.59348   0.62942   -1.000
 3849.00    0.57852   0.61757   -1.000
 3850.00    0.56765   0.61416   -1.000
 3851.00    0.57719   0.62554   -1.000
 3852.00    0.59515   0.63909   -1.000
 3853.00    0.59297   0.64275   -1.000
 3854.00    0.58407   0.63236   -1.000
 3855.00    0.57149   0.61509   -1.000
 3856.00    0.55855   0.59719   -1.000
 3857.00    0.54928   0.57754   51.043
 3858.00    0.52834   0.55765   48.061
 3859.00    0.50413   0.55131   47.400
 3860.00    0.49793   0.56667   -1.000
 3861.00    0.53289   0.60061   -1.000
 3862.00    0.58389   0.63328   -1.000
 3863.00    0.61620   0.64923   -1.000
 3864.00    0.62465   0.64673   -1.000
 3865.00    0.61265   0.63899   -1.000
 3866.00    0.59851   0.63633   -1.000
 3867.00    0.59305   0.63661   -1.000
 3868.00    0.58362   0.63327   -1.000
 3869.00    0.56662   0.62038   -1.000
 3870.00    0.54386   0.59917   51.581
 3871.00    0.52440   0.58280   -1.000
 3872.00    0.52658   0.58042   -1.000
 3873.00    0.55832   0.59735   -1.000
 3874.00    0.60108   0.62197   -1.000
 3875.00    0.63401   0.63598  364.795
 3876.00    0.62795   0.62348  375.068
 3877.00    0.58880   0.59647   -1.000
 3878.00    0.55559   0.57822   -1.000
 3879.00    0.54837   0.57581   -1.000
 3880.00    0.54181   0.58254   -1.000
 3881.00    0.52845   0.58679   -1.000
 3882.00    0.53449   0.58842   -1.000
 3883.00    0.56101   0.59106   -1.000
 3884.00    0.59223   0.58080   -1.000
 3885.00    0.58527   0.54826   -1.000
 3886.00    0.54961   0.50727   -1.000
 3887.00    0.52951   0.47486   -1.000
 3888.00    0.52503   0.46915   -1.000
 3889.00    0.53785   0.49566   -1.000
 3890.00    0.58595   0.54552   -1.000
 3891.00    0.64614   0.59974   -1.000
 3892.00    0.68583   0.63890   -1.000
 3893.00    0.69929   0.65103   -1.000
 3894.00    0.69315   0.64991   -1.000
 3895.00    0.69514   0.65263   -1.000
 3896.00    0.70571   0.66159   -1.000
 3897.00    0.71404   0.67130   -1.000
 3898.00    0.71511   0.67366   -1.000
 3899.00    0.71161   0.67243   -1.000
 3900.00    0.71831   0.67715   -1.000
 3901.00    0.73109   0.68234   -1.000
 3902.00    0.73448   0.67903   -1.000
 3903.00    0.72227   0.66684   -1.000
 3904.00    0.70097   0.65160   -1.000
 3905.00    0.68451   0.64749   -1.000
 3906.00    0.68312   0.66177   -1.000
 3907.00    0.70890   0.69375   -1.000
 3908.00    0.74804   0.72926   -1.000
 3909.00    0.78061   0.75635   -1.000
 3910.00    0.79723   0.77032   -1.000
 3911.00    0.80612   0.77675   -1.000
 3912.00    0.80849   0.77780   -1.000
 3913.00    0.80113   0.77201   -1.000
 3914.00    0.78168   0.76007   -1.000
 3915.00    0.76873   0.74836   -1.000
 3916.00    0.76562   0.73777   -1.000
 3917.00    0.75702   0.72449   -1.000
 3918.00    0.73747   0.70418   -1.000
 3919.00    0.71206   0.67939   -1.000
 3920.00    0.68730   0.65952   -1.000
 3921.00    0.67209   0.64984   -1.000
 3922.00    0.67023   0.65401   -1.000
 3923.00    0.67647   0.66283   -1.000
 3924.00    0.67705   0.66327   -1.000
 3925.00    0.66311   0.64708   -1.000
 3926.00    0.62481   0.61150   -1.000
 3927.00    0.56420   0.56531   56.102
 3928.00    0.50365   0.51233   58.621
 3929.00    0.44746   0.45796   68.601
 3930.00    0.38181   0.39868   81.100
 3931.00    0.31746   0.33176   94.987
 3932.00    0.26015   0.27240  104.492
 3933.00    0.24008   0.23901  101.328
 3934.00    0.25692   0.24750   88.623
 3935.00    0.28980   0.29694   73.536
 3936.00    0.34411   0.36958   60.401
 3937.00    0.40636   0.44480   50.681
 3938.00    0.46772   0.51634   -1.000
 3939.00    0.52429   0.57007   -1.000
 3940.00    0.57122   0.60512   -1.000
 3941.00    0.59342   0.62154   -1.000
 3942.00    0.59686   0.62396   -1.000
 3943.00    0.58846   0.62538   -1.000
 3944.00    0.60572   0.64072   -1.000
 3945.00    0.65152   0.66815   -1.000
 3946.00    0.70695   0.69406   -1.000
 3947.00    0.72095   0.70970   -1.000
 3948.00    0.72072   0.71815  300.651
 3949.00    0.73989   0.72859   -1.000
 3950.00    0.76290   0.73861   -1.000
 3951.00    0.76486   0.73993   -1.000
 3952.00    0.75609   0.74195   -1.000
 3953.00    0.76532   0.75078   -1.000
 3954.00    0.78281   0.75619   -1.000
 3955.00    0.78084   0.75090   -1.000
 3956.00    0.75466   0.73829   -1.000
 3957.00    0.74229   0.72932   -1.000
 3958.00    0.74767   0.72608   -1.000
 3959.00    0.73933   0.70737   -1.000
 3960.00    0.68780   0.66282   -1.000
 3961.00    0.61523   0.61225  375.068
 3962.00    0.56207   0.56768  375.068
 3963.00    0.53209   0.53572   52.419
 3964.00    0.49930   0.49898   55.310
 3965.00    0.43328   0.43961   67.932
 3966.00    0.35449   0.36567   83.201
 3967.00    0.28470   0.29367   92.810
 3968.00    0.24933   0.25349   87.421
 3969.00    0.25841   0.25981   72.659
 3970.00    0.30313   0.30871   59.690
 3971.00    0.36692   0.38073   49.871
 3972.00    0.43499   0.45866   -1.000
 3973.00    0.50272   0.52711   -1.000
 3974.00    0.56749   0.58849   -1.000
 3975.00    0.62821   0.64094   -1.000
 3976.00    0.68074   0.68693  294.378
 3977.00    0.72588   0.73011  278.805
 3978.00    0.77758   0.76844  263.791
 3979.00    0.81884   0.79853   -1.000
 3980.00    0.84479   0.80993   -1.000
 3981.00    0.84259   0.80764   -1.000
 3982.00    0.83080   0.80270   -1.000
 3983.00    0.82861   0.80575   -1.000
 3984.00    0.84376   0.81934   -1.000
 3985.00    0.86409   0.83751   -1.000
 3986.00    0.87966   0.85706   -1.000
 3987.00    0.89642   0.87485   -1.000
 3988.00    0.90744   0.88376   -1.000
 3989.00    0.90880   0.88441   -1.000
 3990.00    0.90713   0.88636   -1.000
 3991.00    0.92327   0.89550   -1.000
 3992.00    0.94530   0.90825   -1.000
 3993.00    0.94635   0.91447   -1.000
 3994.00    0.93218   0.90739   -1.000
 3995.00    0.90972   0.88904   -1.000
 3996.00    0.89071   0.86983   -1.000
 3997.00    0.87478   0.86606  246.147
 3998.00    0.88550   0.88234  235.094
 3999.00    0.92256   0.91098  226.941
 4000.00    0.95869   0.93612   -1.000
 4001.00    0.98480   0.95174   -1.000
 4002.00    0.99234   0.95154   -1.000
 4003.00    0.98024   0.92931   -1.000
 4004.00    0.92945   0.88995   -1.000
 4005.00    0.87962   0.86173   -1.000
 4006.00    0.87424   0.86605  236.159
 4007.00    0.91197   0.89815   -1.000
 4008.00    0.95274   0.93517   -1.000
 4009.00    0.97371   0.95683   -1.000
 4010.00    0.98385   0.96620   -1.000
 4011.00    0.98256   0.96971  221.405
 4012.00    0.98577   0.97160   -1.000
 4013.00    0.99592   0.97547   -1.000
 4014.00    1.00000   0.98175   -1.000
 4015.00    1.01025   0.98562   -1.000
 4016.00    1.00772   0.98469   -1.000
 4017.00    0.99545   0.98564  221.498
 4018.00    1.00238   0.99307  218.162
 4019.00    1.01628   1.00188  218.465
 4020.00    1.02676   1.00516   -1.000
 4021.00    1.02340   0.99921   -1.000
 4022.00    1.01313   0.98922   -1.000
 4023.00    1.00038   0.97982   -1.000
 4024.00    0.98832   0.97588  220.934
 4025.00    0.99751   0.98406  213.123
 4026.00    1.03062   1.00498   -1.000
 4027.00    1.05908   1.02276   -1.000
 4028.00    1.05952   1.01549   -1.000
 4029.00    1.02115   0.97596   -1.000
 4030.00    0.95674   0.92043   -1.000
 4031.00    0.90202   0.87865   -1.000
 4032.00    0.88627   0.85999   -1.000
 4033.00    0.89497   0.86623   -1.000
 4034.00    0.91691   0.89613   -1.000
 4035.00    0.96186   0.94501   -1.000
 4036.00    1.01691   0.99749   -1.000
 4037.00    1.05976   1.03780   -1.000
 4038.00    1.07744   1.04883   -1.000
 4039.00    1.06096   1.03772   -1.000
 4040.00    1.03275   1.02158  216.421
 4041.00    1.02649   1.00986   -1.000
 4042.00    1.02103   0.98680   -1.000
 4043.00    0.98827   0.93507   -1.000
 4044.00    0.91117   0.86668   -1.000
 4045.00    0.82762   0.82204  259.624
 4046.00    0.82445   0.83869   -1.000
 4047.00    0.90993   0.90288  220.150
 4048.00    0.99759   0.96884   -1.000
 4049.00    1.02952   1.01332   -1.000
 4050.00    1.04812   1.02896   -1.000
 4051.00    1.04892   1.02578   -1.000
 4052.00    1.02993   1.00999   -1.000
 4053.00    1.00145   0.98989  227.124
 4054.00    0.97790   0.97195  229.010
 4055.00    0.97219   0.95780   -1.000
 4056.00    0.97311   0.94566   -1.000
 4057.00    0.96362   0.94014   -1.000
 4058.00    0.95500   0.95210  222.263
 4059.00    0.97588   0.97476  217.676
 4060.00    1.00429   0.98213   -1.000
 4061.00    1.00430   0.95371   -1.000
 4062.00    0.95080   0.90014   -1.000
 4063.00    0.87787   0.86361   -1.000
 4064.00    0.87357   0.86051   -1.000
 4065.00    0.92163   0.88215   -1.000
 4066.00    0.94525   0.91243   -1.000
 4067.00    0.95777   0.93909   -1.000
 4068.00    0.99087   0.95611   -1.000
 4069.00    1.02433   0.95437   -1.000
 4070.00    0.99867   0.92815   -1.000
 4071.00    0.94598   0.90059   -1.000
 4072.00    0.93206   0.90203   -1.000
 4073.00    0.96143   0.92370   -1.000
 4074.00    0.98878   0.93462   -1.000
 4075.00    0.96263   0.91171   -1.000
 4076.00    0.89846   0.87271   -1.000
 4077.00    0.85828   0.85491  253.468
 4078.00    0.86595   0.87497  236.290
 4079.00    0.91229   0.92671   -1.000
 4080.00    0.98801   0.97815  212.936
 4081.00    1.02665   1.00597   -1.000
 4082.00    1.01604   1.00123   -1.000
 4083.00    0.99121   0.98014  227.114
 4084.00    0.97063   0.96597  223.977
 4085.00    0.97177   0.97406  216.513
 4086.00    1.00202   1.00269  208.189
 4087.00    1.04276   1.03476  201.427
 4088.00    1.07951   1.05620   -1.000
 4089.00    1.08137   1.05639   -1.000
 4090.00    1.07564   1.04162   -1.000
 4091.00    1.04939   1.02509   -1.000
 4092.00    1.02711   1.01432   -1.000
 4093.00    1.03137   1.00061   -1.000
 4094.00    1.02734   0.97692   -1.000
 4095.00    0.98868   0.94398   -1.000
 4096.00    0.94930   0.91226   -1.000
 4097.00    0.92381   0.88777   -1.000
 4098.00    0.91346   0.85857   -1.000
 4099.00    0.87484   0.81142   -1.000
 4100.00    0.81038   0.75424   -1.000
 4101.00    0.74349   0.71858   -1.000
 4102.00    0.73898   0.73055  266.342
 4103.00    0.79709   0.78834  245.458
 4104.00    0.87247   0.85785   -1.000
 4105.00    0.92897   0.91586   -1.000
 4106.00    0.96715   0.94999   -1.000
 4107.00    0.98203   0.96410   -1.000
 4108.00    0.97728   0.96423   -1.000
 4109.00    0.96930   0.95787  233.396
 4110.00    0.95121   0.95467  230.676
 4111.00    0.95781   0.96127  225.491
 4112.00    0.97674   0.97738  221.573
 4113.00    1.00031   0.99891  218.153
 4114.00    1.02186   1.01936  215.987
 4115.00    1.03154   1.03100  216.968
 4116.00    1.03545   1.02543  221.523
 4117.00    1.02188   1.00577   -1.000
 4118.00    0.99202   0.98403  231.836
 4119.00    0.97436   0.97319  229.069
 4120.00    0.98120   0.97721  226.667
 4121.00    0.98657   0.98627  226.836
 4122.00    0.98374   0.99402  224.467
 4123.00    0.98621   1.00207   -1.000
 4124.00    1.01682   1.01168  219.666
 4125.00    1.02676   1.01711  222.550
 4126.00    1.01705   1.01220  227.351
 4127.00    0.99555   1.00061  229.315
 4128.00    0.97865   0.99102  230.482
 4129.00    0.97898   0.98100  233.353
 4130.00    0.97402   0.96219   -1.000
 4131.00    0.94461   0.93612  248.294
 4132.00    0.92273   0.91685  249.135
 4133.00    0.91322   0.92415  241.104
 4134.00    0.93750   0.95615   -1.000
 4135.00    0.97554   0.99535   -1.000
 4136.00    1.01371   1.02836   -1.000
 4137.00    1.03259   1.05076   -1.000
 4138.00    1.05427   1.06393  213.418
 4139.00    1.06098   1.06611  217.700
 4140.00    1.04778   1.04548  229.084
 4141.00    1.01281   0.99793   -1.000
 4142.00    0.95384   0.94173   -1.000
 4143.00    0.89231   0.91159   -1.000
 4144.00    0.89416   0.92256   -1.000
 4145.00    0.94367   0.96160   -1.000
 4146.00    0.99312   0.99869  226.023
 4147.00    1.00677   1.01127  230.224
 4148.00    0.99628   1.00606  236.687
 4149.00    0.97332   0.99722   -1.000
 4150.00    0.96093   0.99284   -1.000
 4151.00    0.96114   0.99054   -1.000
 4152.00    0.96104   0.98525   -1.000
 4153.00    0.95742   0.97654   -1.000
 4154.00    0.94772   0.96857   -1.000
 4155.00    0.93942   0.96891   -1.000
 4156.00    0.97755   0.98142  237.741
 4157.00    0.97758   1.00235   -1.000
 4158.00    0.98132   1.02692   -1.000
 4159.00    0.98660   1.04732   -1.000
 4160.00    0.98989   1.06068   -1.000
 4161.00    1.02736   1.07100   -1.000
 4162.00    1.04001   1.07879   -1.000
 4163.00    1.04675   1.08153   -1.000
 4164.00    1.03814   1.07463   -1.000
 4165.00    1.01959   1.05731   -1.000
 4166.00    0.99713   1.03697   -1.000
 4167.00    0.97991   1.02834   -1.000
 4168.00    0.98710   1.03088   -1.000
 4169.00    1.00052   1.03293   -1.000
 4170.00    0.99954   1.01645   -1.000
 4171.00    0.95668   0.97966   -1.000
 4172.00    0.89654   0.94751   -1.000
 4173.00    0.87613   0.93826   -1.000
 4174.00    0.89804   0.95293   -1.000
 4175.00    0.92422   0.97413   -1.000
 4176.00    0.93257   0.98563   -1.000
 4177.00    0.93386   0.99242   -1.000
 4178.00    0.93399   1.00204   -1.000
 4179.00    0.94617   1.01177   -1.000
 4180.00    0.96274   1.01521   -1.000
 4181.00    0.96326   1.01016   -1.000
 4182.00    0.97304   1.01300   -1.000
 4183.00    0.98957   1.03087   -1.000
 4184.00    1.01107   1.04498   -1.000
 4185.00    1.02143   1.04059   -1.000
 4186.00    0.99641   1.01899   -1.000
 4187.00    0.96151   1.00220   -1.000
 4188.00    0.95785   1.00607   -1.000
 4189.00    0.97957   1.02160   -1.000
 4190.00    0.99886   1.03598   -1.000
 4191.00    1.00298   1.04636   -1.000
 4192.00    1.01953   1.05623   -1.000
 4193.00    1.04061   1.06076   -1.000
 4194.00    1.03266   1.04647   -1.000
 4195.00    0.98757   1.01204   -1.000
 4196.00    0.94637   0.97627   -1.000
 4197.00    0.92251   0.95114   -1.000
 4198.00    0.91799   0.94147   -1.000
 4199.00    0.93302   0.94272  245.590
 4200.00    0.95287   0.94993  244.928
 4201.00    0.95402   0.95718  243.348
 4202.00    0.95479   0.96858   -1.000
 4203.00    0.96558   0.99104   -1.000
 4204.00    0.98402   1.02129   -1.000
 4205.00    0.99550   1.04898   -1.000
 4206.00    1.01953   1.06977   -1.000
 4207.00    1.03712   1.08278   -1.000
 4208.00    1.04790   1.08440   -1.000
 4209.00    1.05681   1.07996   -1.000
 4210.00    1.05035   1.07904   -1.000
 4211.00    1.05619   1.08451   -1.000
 4212.00    1.06208   1.08424   -1.000
 4213.00    1.04419   1.06055   -1.000
 4214.00    1.00039   1.02401   -1.000
 4215.00    0.95483   1.00533   -1.000
 4216.00    0.96723   1.02337   -1.000
 4217.00    1.04434   1.06996   -1.000
 4218.00    1.10572   1.11295  207.020
 4219.00    1.13167   1.13879  204.807
 4220.00    1.14949   1.14179  206.691
 4221.00    1.15374   1.12267   -1.000
 4222.00    1.11848   1.07956   -1.000
 4223.00    1.05625   1.00934   -1.000
 4224.00    0.98110   0.91826   -1.000
 4225.00    0.88520   0.83991   -1.000
 4226.00    0.80108   0.80795  291.642
 4227.00    0.80705   0.84767   -1.000
 4228.00    0.91448   0.94117   -1.000
 4229.00    1.03209   1.04048  214.520
 4230.00    1.10019   1.09349  212.928
 4231.00    1.11981   1.10137   -1.000
 4232.00    1.09828   1.08255   -1.000
 4233.00    1.06300   1.05478  225.758
 4234.00    1.04600   1.03210   -1.000
 4235.00    1.03048   1.02323  235.321
 4236.00    1.01826   1.02328  233.498
 4237.00    1.02596   1.03246  227.947
 4238.00    1.03385   1.05065   -1.000
 4239.00    1.04658   1.07279   -1.000
 4240.00    1.06690   1.09689   -1.000
 4241.00    1.09056   1.12090   -1.000
 4242.00    1.11046   1.14093   -1.000
 4243.00    1.12344   1.15889   -1.000
 4244.00    1.13827   1.16912   -1.000
 4245.00    1.14132   1.15829   -1.000
 4246.00    1.10820   1.12346   -1.000
 4247.00    1.06479   1.07861   -1.000
 4248.00    1.03385   1.03916  236.695
 4249.00    1.01594   1.01872  236.384
 4250.00    1.00997   1.02029  229.421
 4251.00    1.02992   1.03852  222.938
 4252.00    1.06503   1.05031   -1.000
 4253.00    1.06437   1.04611   -1.000
 4254.00    1.04173   1.04077  227.486
 4255.00    1.04057   1.05589   -1.000
 4256.00    1.07223   1.08558  216.751
 4257.00    1.09668   1.09269  225.339
 4258.00    1.07729   1.06256   -1.000
 4259.00    1.01768   1.02120  244.119
 4260.00    0.97517   1.00685   -1.000
 4261.00    0.99363   1.03915   -1.000
 4262.00    1.06242   1.09980   -1.000
 4263.00    1.12877   1.15732   -1.000
 4264.00    1.16765   1.18588   -1.000
 4265.00    1.18575   1.18793  207.692
 4266.00    1.17114   1.17253  214.722
 4267.00    1.14010   1.14075  221.234
 4268.00    1.10824   1.09358   -1.000
 4269.00    1.07479   1.03529   -1.000
 4270.00    1.00984   0.97381   -1.000
 4271.00    0.93490   0.93295  262.855
 4272.00    0.91167   0.92148  256.730
 4273.00    0.93767   0.93805  250.254
 4274.00    0.96312   0.97368  238.895
 4275.00    0.99403   1.02343   -1.000
 4276.00    1.05756   1.08094   -1.000
 4277.00    1.11795   1.12818  213.015
 4278.00    1.14228   1.13999  222.881
 4279.00    1.11910   1.12165  230.604
 4280.00    1.07812   1.09536   -1.000
 4281.00    1.05832   1.08548   -1.000
 4282.00    1.06893   1.08973   -1.000
 4283.00    1.08063   1.09238   -1.000
 4284.00    1.06910   1.08622   -1.000
 4285.00    1.04649   1.07234   -1.000
 4286.00    1.03014   1.05439   -1.000
 4287.00    1.01916   1.02722  254.474
 4288.00    0.98724   0.98871  267.387
 4289.00    0.93178   0.95345   -1.000
 4290.00    0.90573   0.94856   -1.000
 4291.00    0.94639   0.97962   -1.000
 4292.00    1.01078   1.02083  233.150
 4293.00    1.04923   1.04054  235.520
 4294.00    1.04992   1.03758  239.480
 4295.00    1.03054   1.02435  245.018
 4296.00    1.01089   0.99994  257.709
 4297.00    0.98113   0.95657   -1.000
 4298.00    0.91880   0.90261   -1.000
 4299.00    0.85334   0.85553  304.622
 4300.00    0.82476   0.83577   -1.000
 4301.00    0.83402   0.84137   -1.000
 4302.00    0.85533   0.85776  286.357
 4303.00    0.87121   0.87207  282.922
 4304.00    0.88869   0.87858  284.299
 4305.00    0.89068   0.86758   -1.000
 4306.00    0.86670   0.83859   -1.000
 4307.00    0.82491   0.80902   -1.000
 4308.00    0.79774   0.80044  311.366
 4309.00    0.80388   0.82186   -1.000
 4310.00    0.85763   0.86470   -1.000
 4311.00    0.90987   0.91556  261.007
 4312.00    0.94811   0.96348   -1.000
 4313.00    0.98724   1.01708   -1.000
 4314.00    1.02735   1.08517   -1.000
 4315.00    1.09713   1.16344   -1.000
 4316.00    1.19535   1.23868   -1.000
 4317.00    1.26436   1.27930   -1.000
 4318.00    1.26777   1.28103  195.582
 4319.00    1.24827   1.25981  200.091
 4320.00    1.21962   1.22885  206.998
 4321.00    1.18904   1.18545  217.376
 4322.00    1.15059   1.12329   -1.000
 4323.00    1.08567   1.04281   -1.000
 4324.00    0.99529   0.97401   -1.000
 4325.00    0.93193   0.95799   -1.000
 4326.00    0.95158   1.01004   -1.000
 4327.00    1.05175   1.10189   -1.000
 4328.00    1.16004   1.18641   -1.000
 4329.00    1.20247   1.22463   -1.000
 4330.00    1.20098   1.22963   -1.000
 4331.00    1.19486   1.22933   -1.000
 4332.00    1.20629   1.23844   -1.000
 4333.00    1.21596   1.24890   -1.000
 4334.00    1.22346   1.24366   -1.000
 4335.00    1.21606   1.20742  211.897
 4336.00    1.16071   1.13430   -1.000
 4337.00    1.06299   1.03320   -1.000
 4338.00    0.96621   0.93184   -1.000
 4339.00    0.88836   0.87303   -1.000
 4340.00    0.84528   0.87168   -1.000
 4341.00    0.88148   0.92640   -1.000
 4342.00    0.98337   1.01274   -1.000
 4343.00    1.05743   1.09398   -1.000
 4344.00    1.10740   1.14782   -1.000
 4345.00    1.14758   1.18498   -1.000
 4346.00    1.18217   1.21432   -1.000
 4347.00    1.18958   1.24119   -1.000
 4348.00    1.21444   1.25640   -1.000
 4349.00    1.23105   1.23708  210.792
 4350.00    1.19202   1.18132  226.952
 4351.00    1.11044   1.12371   -1.000
 4352.00    1.06468   1.10285   -1.000
 4353.00    1.10250   1.13082   -1.000
 4354.00    1.16450   1.18029   -1.000
 4355.00    1.20392   1.22241   -1.000
 4356.00    1.22866   1.24283   -1.000
 4357.00    1.23814   1.24350  203.874
 4358.00    1.21731   1.23301   -1.000
 4359.00    1.19459   1.23042   -1.000
 4360.00    1.21029   1.24700   -1.000
 4361.00    1.25138   1.27410   -1.000
 4362.00    1.27895   1.29907   -1.000
 4363.00    1.28592   1.31542   -1.000
 4364.00    1.29879   1.32351   -1.000
 4365.00    1.31003   1.31590  196.950
 4366.00    1.28183   1.28634  204.258
 4367.00    1.22905   1.24985   -1.000
 4368.00    1.19884   1.22908   -1.000
 4369.00    1.19956   1.22451   -1.000
 4370.00    1.21825   1.22455  202.586
 4371.00    1.21971   1.21493  204.757
 4372.00    1.21539   1.18856   -1.000
 4373.00    1.17817   1.15014   -1.000
 4374.00    1.12488   1.11833  221.681
 4375.00    1.10798   1.12009   -1.000
 4376.00    1.14553   1.15978   -1.000
 4377.00    1.21274   1.21114  198.031
 4378.00    1.25578   1.23775   -1.000
 4379.00    1.25560   1.22883   -1.000
 4380.00    1.23321   1.18366   -1.000
 4381.00    1.19407   1.10284   -1.000
 4382.00    1.09187   1.00747   -1.000
 4383.00    0.96002   0.94433   -1.000
 4384.00    0.90519   0.94577   -1.000
 4385.00    0.98033   1.00880   -1.000
 4386.00    1.08874   1.08831  211.141
 4387.00    1.15195   1.13626   -1.000
 4388.00    1.16978   1.14873   -1.000
 4389.00    1.16080   1.14699  214.727
 4390.00    1.15770   1.15033  210.226
 4391.00    1.17105   1.16302  205.448
 4392.00    1.19242   1.17613   -1.000
 4393.00    1.21102   1.17977   -1.000
 4394.00    1.18918   1.17956  210.927
 4395.00    1.17684   1.19625   -1.000
 4396.00    1.22167   1.23080  195.085
 4397.00    1.27173   1.25460  198.429
 4398.00    1.27781   1.24685   -1.000
 4399.00    1.23059   1.21803  212.118
 4400.00    1.17780   1.19576   -1.000
 4401.00    1.18303   1.18485  205.195
 4402.00    1.21112   1.16721   -1.000
 4403.00    1.18368   1.12785   -1.000
 4404.00    1.11327   1.08586   -1.000
 4405.00    1.08348   1.07545  218.889
 4406.00    1.12095   1.09957   -1.000
 4407.00    1.14821   1.13479  214.148
 4408.00    1.15095   1.17284   -1.000
 4409.00    1.18298   1.21983   -1.000
 4410.00    1.23887   1.27485   -1.000
 4411.00    1.29331   1.31079   -1.000
 4412.00    1.31379   1.30200  193.849
 4413.00    1.28867   1.25599   -1.000
 4414.00    1.22288   1.20043   -1.000
 4415.00    1.15673   1.16711  210.677
 4416.00    1.14446   1.18043   -1.000
 4417.00    1.18601   1.23088   -1.000
 4418.00    1.23730   1.28793   -1.000
 4419.00    1.27801   1.31966   -1.000
 4420.00    1.29420   1.31713   -1.000
 4421.00    1.26629   1.28977   -1.000
 4422.00    1.22693   1.26327   -1.000
 4423.00    1.20643   1.25506   -1.000
 4424.00    1.21901   1.26107   -1.000
 4425.00    1.22589   1.26756   -1.000
 4426.00    1.21368   1.27153   -1.000
 4427.00    1.21744   1.27763   -1.000
 4428.00    1.23468   1.28285   -1.000
 4429.00    1.23212   1.28146   -1.000
 4430.00    1.21641   1.27646   -1.000
 4431.00    1.21786   1.27463   -1.000
 4432.00    1.23783   1.26802   -1.000
 4433.00    1.22595   1.24145   -1.000
 4434.00    1.18243   1.20844   -1.000
 4435.00    1.15102   1.20222   -1.000
 4436.00    1.17832   1.24215   -1.000
 4437.00    1.25597   1.30899   -1.000
 4438.00    1.32619   1.35728   -1.000
 4439.00    1.34460   1.36215   -1.000
 4440.00    1.31776   1.32384  200.108
 4441.00    1.25992   1.27135  208.385
 4442.00    1.21058   1.23799   -1.000
 4443.00    1.19145   1.24826   -1.000
 4444.00    1.22878   1.29347   -1.000
 4445.00    1.29514   1.34205   -1.000
 4446.00    1.32932   1.37041   -1.000
 4447.00    1.33255   1.37645   -1.000
 4448.00    1.33221   1.37473   -1.000
 4449.00    1.33618   1.37127   -1.000
 4450.00    1.32162   1.36385   -1.000
 4451.00    1.31063   1.35074   -1.000
 4452.00    1.31440   1.32661  200.543
 4453.00    1.29141   1.28525  209.890
 4454.00    1.23037   1.23767  213.719
 4455.00    1.18952   1.21257   -1.000
 4456.00    1.19919   1.21459  205.894
 4457.00    1.21691   1.22729  206.312
 4458.00    1.21704   1.23100  207.459
 4459.00    1.21064   1.22391  209.717
 4460.00    1.20473   1.21806  211.452
 4461.00    1.19341   1.22587   -1.000
 4462.00    1.21368   1.25315   -1.000
 4463.00    1.25598   1.29012   -1.000
 4464.00    1.29751   1.31816   -1.000
 4465.00    1.31163   1.32713   -1.000
 4466.00    1.30100   1.32059   -1.000
 4467.00    1.29649   1.30798  200.513
 4468.00    1.28114   1.29772   -1.000
 4469.00    1.26189   1.29785   -1.000
 4470.00    1.26841   1.31853   -1.000
 4471.00    1.30299   1.35643   -1.000
 4472.00    1.35190   1.39403   -1.000
 4473.00    1.38667   1.42109   -1.000
 4474.00    1.42003   1.43429  179.430
 4475.00    1.42316   1.44423   -1.000
 4476.00    1.42511   1.45673   -1.000
 4477.00    1.44690   1.45925  178.674
 4478.00    1.44588   1.43421  185.717
 4479.00    1.39647   1.38165  194.224
 4480.00    1.32462   1.32906  199.303
 4481.00    1.28124   1.30881   -1.000
 4482.00    1.28079   1.33349   -1.000
 4483.00    1.33343   1.38914   -1.000
 4484.00    1.39470   1.44396   -1.000
 4485.00    1.43304   1.47597   -1.000
 4486.00    1.44598   1.47301   -1.000
 4487.00    1.42233   1.43834   -1.000
 4488.00    1.37264   1.39160   -1.000
 4489.00    1.32558   1.36574   -1.000
 4490.00    1.31529   1.37209   -1.000
 4491.00    1.34757   1.39616   -1.000
 4492.00    1.38214   1.40581   -1.000
 4493.00    1.37301   1.38618  191.924
 4494.00    1.33384   1.35783   -1.000
 4495.00    1.30572   1.34679   -1.000
 4496.00    1.30973   1.36533   -1.000
 4497.00    1.34665   1.40026   -1.000
 4498.00    1.38546   1.42898   -1.000
 4499.00    1.40017   1.43811   -1.000
 4500.00    1.38587   1.43289   -1.000
 4501.00    1.36681   1.43481   -1.000
 4502.00    1.39244   1.45580   -1.000
 4503.00    1.46273   1.49012   -1.000
 4504.00    1.51622   1.52099  170.161
 4505.00    1.51591   1.53104   -1.000
 4506.00    1.49802   1.52003   -1.000
 4507.00    1.47989   1.50440   -1.000
 4508.00    1.46225   1.49819   -1.000
 4509.00    1.47592   1.50200   -1.000
 4510.00    1.48913   1.50589   -1.000
 4511.00    1.48040   1.49799   -1.000
 4512.00    1.46312   1.47786   -1.000
 4513.00    1.43127   1.45581   -1.000
 4514.00    1.40776   1.44095   -1.000
 4515.00    1.40408   1.43577   -1.000
 4516.00    1.41391   1.43557   -1.000
 4517.00    1.41118   1.43449   -1.000
 4518.00    1.40551   1.43607   -1.000
 4519.00    1.42029   1.44769   -1.000
 4520.00    1.44471   1.46456   -1.000
 4521.00    1.45559   1.47183   -1.000
 4522.00    1.42388   1.46011   -1.000
 4523.00    1.39054   1.43529   -1.000
 4524.00    1.38547   1.40834   -1.000
 4525.00    1.36297   1.37855   -1.000
 4526.00    1.32728   1.34096   -1.000
 4527.00    1.28989   1.30178  204.747
 4528.00    1.25415   1.27596   -1.000
 4529.00    1.25888   1.27389   -1.000
 4530.00    1.27579   1.29186   -1.000
 4531.00    1.30550   1.31488  195.100
 4532.00    1.32917   1.32593  201.064
 4533.00    1.31805   1.31894  207.646
 4534.00    1.28311   1.30842   -1.000
 4535.00    1.27225   1.31885   -1.000
 4536.00    1.32322   1.36050   -1.000
 4537.00    1.41381   1.41697  176.394
 4538.00    1.46487   1.45690  178.602
 4539.00    1.45476   1.46363  182.930
 4540.00    1.42203   1.44918   -1.000
 4541.00    1.40036   1.43709   -1.000
 4542.00    1.41225   1.43786   -1.000
 4543.00    1.42604   1.44256   -2.000
 4544.00    1.38722   1.43933   -2.000
 4545.00    0.32652   1.42824   -2.000
 4546.00   -0.05794   1.41775    0.000
 4547.00    0.04525   1.40765   -1.000
 4548.00    1.05504   1.39289   -1.000
 4549.00    0.45064   1.38020   -1.000
 4550.00    0.88775   1.38260   -1.000
 4551.00    1.44676   1.39739   -1.000
 4552.00    1.37657   1.40375   -1.000
 4553.00    1.36223   1.39325   -1.000
 4554.00    1.34092   1.38140   -1.000
 4555.00    1.34798   1.38860   -1.000
 4556.00    1.38457   1.42174   -1.000
 4557.00    1.44170   1.46745   -1.000
 4558.00    1.48477   1.50410   -1.000
 4559.00    1.49369   1.52229   -1.000
 4560.00    1.49058   1.52667   -1.000
 4561.00    1.49084   1.52011   -1.000
 4562.00    1.48277   1.50054   -1.000
 4563.00    1.44897   1.46962   -1.000
 4564.00    1.40769   1.44256   -1.000
 4565.00    1.39790   1.43721   -1.000
 4566.00    1.43083   1.45873   -1.000
 4567.00    1.47691   1.49279   -1.000
 4568.00    1.50215   1.51602  175.064
 4569.00    1.50350   1.51327  179.683
 4570.00    1.47032   1.49056   -1.000
 4571.00    1.42329   1.46641   -1.000
 4572.00    1.42064   1.46239   -1.000
 4573.00    1.45871   1.48358   -1.000
 4574.00    1.49274   1.50969   -1.000
 4575.00    1.49618   1.52099   -1.000
 4576.00    1.48959   1.51628   -1.000
 4577.00    1.48125   1.50115   -1.000
 4578.00    1.45918   1.47535   -1.000
 4579.00    1.42440   1.44177   -1.000
 4580.00    1.39389   1.41363   -1.000
 4581.00    1.38533   1.40469   -1.000
 4582.00    1.39609   1.41249   -1.000
 4583.00    1.40857   1.42269   -1.000
 4584.00    1.40574   1.42610   -1.000
 4585.00    1.40603   1.42690   -1.000
 4586.00    1.41882   1.43750   -1.000
 4587.00    1.45018   1.46274  174.475
 4588.00    1.48495   1.49124  174.548
 4589.00    1.49833   1.50736  177.306
 4590.00    1.49001   1.50407  180.651
 4591.00    1.45881   1.48504   -1.000
 4592.00    1.43164   1.46238   -1.000
 4593.00    1.42495   1.44809   -1.000
 4594.00    1.42762   1.44342   -1.000
 4595.00    1.42967   1.44410   -1.000
 4596.00    1.43261   1.44813   -1.000
 4597.00    1.45180   1.45524  179.443
 4598.00    1.45623   1.46198  181.147
 4599.00    1.45342   1.46415  182.719
 4600.00    1.44307   1.46117   -1.000
 4601.00    1.43047   1.45778   -1.000
 4602.00    1.43782   1.45822   -1.000
 4603.00    1.45561   1.46110  179.434
 4604.00    1.46383   1.46414  179.007
 4605.00    1.46393   1.47025  176.876
 4606.00    1.46994   1.48710   -1.000
 4607.00    1.50732   1.51756  169.628
 4608.00    1.54898   1.55225  167.868
 4609.00    1.58011   1.57483  168.858
 4610.00    1.57930   1.57363  171.257
 4611.00    1.55037   1.55584  173.088
 4612.00    1.53026   1.53795  174.058
 4613.00    1.52057   1.53072  173.045
 4614.00    1.52859   1.53541  171.509
 4615.00    1.53694   1.54594  170.973
 4616.00    1.53681   1.55446   -1.000
 4617.00    1.53509   1.55775   -1.000
 4618.00    1.52947   1.55655   -1.000
 4619.00    1.52311   1.55505   -1.000
 4620.00    1.53298   1.55901   -1.000
 4621.00    1.55381   1.56799  168.793
 4622.00    1.56621   1.57386  169.237
 4623.00    1.56123   1.57100  169.633
 4624.00    1.56025   1.56273  171.208
 4625.00    1.55192   1.55553  171.526
 4626.00    1.54685   1.55115  171.477
 4627.00    1.54961   1.55031  172.621
 4628.00    1.54497   1.55195  172.871
 4629.00    1.53071   1.55507   -1.000
 4630.00    1.53465   1.56101   -1.000
 4631.00    1.55970   1.56647  170.995
 4632.00    1.56372   1.56296  173.569
 4633.00    1.53548   1.54883  175.322
 4634.00    1.51429   1.53347   -1.000
 4635.00    1.51689   1.52393  176.712
 4636.00    1.51086   1.51474  179.019
 4637.00    1.49730   1.50078  179.595
 4638.00    1.48406   1.48678  179.114
 4639.00    1.48150   1.48153  175.822
 4640.00    1.49834   1.49007  171.548
 4641.00    1.53066   1.50843   -1.000
 4642.00    1.55461   1.52351   -1.000
 4643.00    1.55504   1.52204   -1.000
 4644.00    1.54235   1.50071   -1.000
 4645.00    1.50042   1.46768   -1.000
 4646.00    1.44937   1.43425  183.924
 4647.00    1.42898   1.41734  180.367
 4648.00    1.44217   1.42871  176.196
 4649.00    1.47643   1.46175  174.015
 4650.00    1.50862   1.49879  173.828
 4651.00    1.52654   1.52517  173.612
 4652.00    1.53186   1.53470  175.956
 4653.00    1.52737   1.52728  180.043
 4654.00    1.50334   1.50865  181.750
 4655.00    1.47918   1.49443   -1.000
 4656.00    1.47553   1.49946   -1.000
 4657.00    1.50508   1.52799   -1.000
 4658.00    1.56295   1.57208  163.742
 4659.00    1.61727   1.61042  163.920
 4660.00    1.63137   1.62356  166.221
 4661.00    1.60655   1.60801  170.388
 4662.00    1.56368   1.57576  173.499
 4663.00    1.53709   1.54125  173.886
 4664.00    1.52279   1.50919  177.208
 4665.00    1.50133   1.47231   -1.000
 4666.00    1.44505   1.42884   -1.000
 4667.00    1.37868   1.39356  191.647
 4668.00    1.35912   1.38910   -1.000
 4669.00    1.40469   1.42148  177.566
 4670.00    1.46922   1.47096  173.178
 4671.00    1.52230   1.51097  172.441
 4672.00    1.54937   1.52923   -1.000
 4673.00    1.53724   1.53207  172.268
 4674.00    1.53849   1.53578  169.873
 4675.00    1.56047   1.54650  167.528
 4676.00    1.58560   1.55653   -1.000
 4677.00    1.59023   1.55170   -1.000
 4678.00    1.56110   1.52991   -1.000
 4679.00    1.52673   1.50264   -1.000
 4680.00    1.49446   1.48101  180.116
 4681.00    1.48540   1.47359  177.469
 4682.00    1.50347   1.48329   -1.000
 4683.00    1.52958   1.50412   -1.000
 4684.00    1.56333   1.52335   -1.000
 4685.00    1.57433   1.53185   -1.000
 4686.00    1.55946   1.53005   -1.000
 4687.00    1.54978   1.52337   -1.000
 4688.00    1.54801   1.51794   -1.000
 4689.00    1.54799   1.51530   -1.000
 4690.00    1.54240   1.51360   -1.000
 4691.00    1.53740   1.51223   -1.000
 4692.00    1.54894   1.51520   -1.000
 4693.00    1.57322   1.52538   -1.000
 4694.00    1.60158   1.54036   -1.000
 4695.00    1.62150   1.55359   -1.000
 4696.00    1.62322   1.55513   -1.000
 4697.00    1.59945   1.53780   -1.000
 4698.00    1.55345   1.50789   -1.000
 4699.00    1.51847   1.48130   -1.000
 4700.00    1.51052   1.46573   -1.000
 4701.00    1.50785   1.45611   -1.000
 4702.00    1.49576   1.45046   -1.000
 4703.00    1.49358   1.45422   -1.000
 4704.00    1.50970   1.46989   -1.000
 4705.00    1.53194   1.48549   -1.000
 4706.00    1.53025   1.48691   -1.000
 4707.00    1.50277   1.47509   -1.000
 4708.00    1.47822   1.46480  180.852
 4709.00    1.46998   1.46980  175.294
 4710.00    1.50213   1.49013  170.754
 4711.00    1.55104   1.51276   -1.000
 4712.00    1.58383   1.52293   -1.000
 4713.00    1.56799   1.51711   -1.000
 4714.00    1.54460   1.50889   -1.000
 4715.00    1.53736   1.51615   -1.000
 4716.00    1.56727   1.54212   -1.000
 4717.00    1.59329   1.57463  166.453
 4718.00    1.60891   1.60096  165.887
 4719.00    1.62106   1.61753  165.476
 4720.00    1.62983   1.62436  166.993
 4721.00    1.61832   1.62116  167.987
 4722.00    1.60212   1.61401  166.804
 4723.00    1.60422   1.61372  165.112
 4724.00    1.62139   1.61874  165.794
 4725.00    1.62155   1.61296  170.246
 4726.00    1.59191   1.58525  176.673
 4727.00    1.53526   1.53972  180.082
 4728.00    1.49516   1.49680  179.049
 4729.00    1.48668   1.47673  177.190
 4730.00    1.49953   1.48144   -1.000
 4731.00    1.52811   1.50184   -1.000
 4732.00    1.54560   1.52682   -1.000
 4733.00    1.55784   1.54737  171.268
 4734.00    1.58320   1.55729   -1.000
 4735.00    1.58614   1.55747   -1.000
 4736.00    1.57342   1.55512   -1.000
 4737.00    1.56402   1.55808  170.143
 4738.00    1.57789   1.56912  170.437
 4739.00    1.59209   1.58096  171.418
 4740.00    1.58629   1.58485  171.458
 4741.00    1.57860   1.58406  169.944
 4742.00    1.58882   1.58735  168.246
 4743.00    1.60562   1.59446  168.702
 4744.00    1.61227   1.60160  168.712
 4745.00    1.60929   1.60972  167.327
 4746.00    1.60972   1.62099  165.722
 4747.00    1.62534   1.63455  165.506
 4748.00    1.63578   1.64525  165.780
 4749.00    1.63415   1.65091  165.975
 4750.00    1.63269   1.65263   -1.000
 4751.00    1.62696   1.64786   -1.000
 4752.00    1.61111   1.63395   -1.000
 4753.00    1.58767   1.61471   -1.000
 4754.00    1.57314   1.59863   -1.000
 4755.00    1.56589   1.59175   -1.000
 4756.00    1.56726   1.59380   -1.000
 4757.00    1.56556   1.60193   -1.000
 4758.00    1.56511   1.61380   -1.000
 4759.00    1.57599   1.62396   -1.000
 4760.00    1.57531   1.62433   -1.000
 4761.00    1.55051   1.60842   -1.000
 4762.00    1.51291   1.57968   -1.000
 4763.00    1.49968   1.55103   -1.000
 4764.00    1.49488   1.53223   -1.000
 4765.00    1.49217   1.52207   -1.000
 4766.00    1.50364   1.52072  176.638
 4767.00    1.52460   1.53658  172.672
 4768.00    1.55190   1.57178   -1.000
 4769.00    1.59015   1.61015   -1.000
 4770.00    1.60774   1.63115   -1.000
 4771.00    1.59302   1.62927   -1.000
 4772.00    1.58496   1.62212   -1.000
 4773.00    1.59477   1.62975   -1.000
 4774.00    1.62074   1.65227   -1.000
 4775.00    1.63911   1.67541   -1.000
 4776.00    1.64199   1.68727   -1.000
 4777.00    1.63619   1.69021   -1.000
 4778.00    1.62299   1.68818   -1.000
 4779.00    1.61250   1.67975   -1.000
 4780.00    1.60880   1.66667   -1.000
 4781.00    1.60825   1.65294   -1.000
 4782.00    1.60112   1.63737   -1.000
 4783.00    1.58379   1.62056   -1.000
 4784.00    1.57925   1.60975   -1.000
 4785.00    1.57443   1.60588   -1.000
 4786.00    1.55693   1.60238   -1.000
 4787.00    1.54378   1.59858   -1.000
 4788.00    1.55041   1.59818   -1.000
 4789.00    1.55469   1.60093   -1.000
 4790.00    1.55594   1.60741   -1.000
 4791.00    1.57474   1.62376   -1.000
 4792.00    1.60677   1.65330   -1.000
 4793.00    1.64339   1.69014   -1.000
 4794.00    1.67247   1.72402   -1.000
 4795.00    1.68627   1.74239   -1.000
 4796.00    1.68125   1.73789   -1.000
 4797.00    1.65389   1.71286   -1.000
 4798.00    1.61583   1.67979   -1.000
 4799.00    1.58876   1.65539   -1.000
 4800.00    1.58709   1.65259   -1.000
 4801.00    1.61225   1.67229   -1.000
 4802.00    1.64233   1.70139   -1.000
 4803.00    1.65311   1.71756   -1.000
 4804.00    1.63754   1.70783   -1.000
 4805.00    1.61308   1.68292   -1.000
 4806.00    1.60047   1.65990   -1.000
 4807.00    1.59602   1.64807   -1.000
 4808.00    1.60046   1.64869   -1.000
 4809.00    1.60976   1.65917   -1.000
 4810.00    1.62269   1.67365   -1.000
 4811.00    1.63104   1.68598   -1.000
 4812.00    1.63664   1.69227   -1.000
 4813.00    1.63940   1.69560   -1.000
 4814.00    1.64693   1.70114   -1.000
 4815.00    1.65806   1.71057   -1.000
 4816.00    1.67360   1.72337   -1.000
 4817.00    1.67951   1.73752   -1.000
 4818.00    1.68717   1.74995   -1.000
 4819.00    1.69256   1.75722   -1.000
 4820.00    1.68976   1.75504   -1.000
 4821.00    1.67366   1.73815   -1.000
 4822.00    1.64304   1.70565   -1.000
 4823.00    1.59999   1.66838   -1.000
 4824.00    1.57993   1.64689   -1.000
 4825.00    1.61196   1.65384   -1.000
 4826.00    1.64938   1.67700   -1.000
 4827.00    1.66095   1.69043   -1.000
 4828.00    1.64073   1.68699   -1.000
 4829.00    1.62512   1.67700   -1.000
 4830.00    1.61961   1.66719   -1.000
 4831.00    1.61342   1.65630   -1.000
 4832.00    1.60671   1.64797   -1.000
 4833.00    1.61806   1.65172   -1.000
 4834.00    1.64193   1.66841   -1.000
 4835.00    1.65188   1.68781   -1.000
 4836.00    1.65262   1.69729   -1.000
 4837.00    1.64909   1.69486   -1.000
 4838.00    1.63956   1.68208   -1.000
 4839.00    1.60756   1.66257   -1.000
 4840.00    1.58784   1.64670   -1.000
 4841.00    1.59301   1.64122   -1.000
 4842.00    1.60267   1.64199   -1.000
 4843.00    1.60609   1.64582   -1.000
 4844.00    1.61924   1.65759   -1.000
 4845.00    1.64682   1.67805   -1.000
 4846.00    1.66116   1.69429   -1.000
 4847.00    1.64324   1.69137   -1.000
 4848.00    1.61331   1.67301   -1.000
 4849.00    1.60186   1.66048   -1.000
 4850.00    1.61878   1.66364   -1.000
 4851.00    1.63465   1.67267   -1.000
 4852.00    1.63152   1.67284   -1.000
 4853.00    1.61192   1.65316   -1.000
 4854.00    1.56895   1.61331   -1.000
 4855.00    1.52373   1.56948   -1.000
 4856.00    1.49887   1.54450   -1.000
 4857.00    1.50630   1.53505   -1.000
 4858.00    1.49326   1.50807  202.928
 4859.00    1.40664   1.42783   -1.000
 4860.00    1.26521   1.30611   -1.000
 4861.00    1.15764   1.21491   -1.000
 4862.00    1.18862   1.21338   -1.000
 4863.00    1.30757   1.29961  187.195
 4864.00    1.41272   1.41157  181.063
 4865.00    1.47543   1.49872   -1.000
 4866.00    1.51388   1.55336   -1.000
 4867.00    1.53561   1.58592   -1.000
 4868.00    1.55250   1.60077   -1.000
 4869.00    1.55316   1.59260   -1.000
 4870.00    1.51705   1.55789   -1.000
 4871.00    1.46350   1.51241   -1.000
 4872.00    1.44840   1.49009   -1.000
 4873.00    1.48740   1.51382   -1.000
 4874.00    1.53042   1.56283   -1.000
 4875.00    1.55000   1.60293   -1.000
 4876.00    1.55384   1.62662   -1.000
 4877.00    1.56512   1.64437   -1.000
 4878.00    1.59202   1.66558   -1.000
 4879.00    1.61889   1.68770   -1.000
 4880.00    1.62681   1.69960   -1.000
 4881.00    1.59933   1.69180   -1.000
 4882.00    1.57786   1.67235   -1.000
 4883.00    1.58192   1.65779   -1.000
 4884.00    1.57682   1.64515   -1.000
 4885.00    1.54910   1.62472   -1.000
 4886.00    1.53370   1.60473   -1.000
 4887.00    1.54033   1.59733   -1.000
 4888.00    1.54801   1.59485   -1.000
 4889.00    1.53532   1.58034   -1.000
 4890.00    1.50333   1.55227   -1.000
 4891.00    1.48672   1.53659   -1.000
 4892.00    1.52836   1.56559   -1.000
 4893.00    1.61959   1.63892  161.891
 4894.00    1.69756   1.72446   -1.000
 4895.00    1.73214   1.78518   -1.000
 4896.00    1.74639   1.81073   -1.000
 4897.00    1.74568   1.81097   -1.000
 4898.00    1.72985   1.79589   -1.000
 4899.00    1.69810   1.77209   -1.000
 4900.00    1.66569   1.74891   -1.000
 4901.00    1.66178   1.73351   -1.000
 4902.00    1.66290   1.72270   -1.000
 4903.00    1.65266   1.71430   -1.000
 4904.00    1.65605   1.71777   -1.000
 4905.00    1.68325   1.74156   -1.000
 4906.00    1.71703   1.76946   -1.000
 4907.00    1.71457   1.77096   -1.000
 4908.00    1.67529   1.74049   -1.000
 4909.00    1.63477   1.69598   -1.000
 4910.00    1.59782   1.66048   -1.000
 4911.00    1.59712   1.65189   -1.000
 4912.00    1.63197   1.67187   -1.000
 4913.00    1.67066   1.70691   -1.000
 4914.00    1.69913   1.74018   -1.000
 4915.00    1.72022   1.76133   -1.000
 4916.00    1.72520   1.75670   -1.000
 4917.00    1.67505   1.70936   -1.000
 4918.00    1.58746   1.62205   -1.000
 4919.00    1.49889   1.52984   -1.000
 4920.00    1.45358   1.47514   -1.000
 4921.00    1.48834   1.48306  177.353
 4922.00    1.54832   1.53512  175.157
 4923.00    1.59279   1.58941  174.804
 4924.00    1.60278   1.62194   -1.000
 4925.00    1.61947   1.64671   -1.000
 4926.00    1.65830   1.68337   -1.000
 4927.00    1.69763   1.72754   -1.000
 4928.00    1.72377   1.76631   -1.000
 4929.00    1.74170   1.79538   -1.000
 4930.00    1.75413   1.80917   -1.000
 4931.00    1.75010   1.79856   -1.000
 4932.00    1.71491   1.76272   -1.000
 4933.00    1.65810   1.71667   -1.000
 4934.00    1.62927   1.68642   -1.000
 4935.00    1.64465   1.68239   -1.000
 4936.00    1.65870   1.68120   -1.000
 4937.00    1.63104   1.65662   -1.000
 4938.00    1.58260   1.61633   -1.000
 4939.00    1.57093   1.59964   -1.000
 4940.00    1.61972   1.63102  167.134
 4941.00    1.68697   1.69396  164.319
 4942.00    1.72974   1.75436   -1.000
 4943.00    1.74465   1.78859   -1.000
 4944.00    1.74861   1.79780   -1.000
 4945.00    1.73912   1.79245   -1.000
 4946.00    1.72720   1.78580   -1.000
 4947.00    1.73517   1.78906   -1.000
 4948.00    1.75835   1.80361   -1.000
 4949.00    1.77849   1.81951   -1.000
 4950.00    1.77980   1.82796   -1.000
 4951.00    1.77714   1.82824   -1.000
 4952.00    1.77109   1.82088   -1.000
 4953.00    1.75614   1.80743   -1.000
 4954.00    1.73695   1.78357   -1.000
 4955.00    1.70228   1.73560   -1.000
 4956.00    1.62450   1.65674   -1.000
 4957.00    1.54799   1.57698   -1.000
 4958.00    1.53804   1.55691  171.219
 4959.00    1.62011   1.61340  166.047
 4960.00    1.70746   1.70006  165.167
 4961.00    1.73328   1.76398   -1.000
 4962.00    1.73334   1.78544   -1.000
 4963.00    1.72916   1.77806   -1.000
 4964.00    1.71559   1.75335   -1.000
 4965.00    1.67719   1.71836   -1.000
 4966.00    1.64806   1.68805   -1.000
 4967.00    1.63951   1.67555   -1.000
 4968.00    1.65290   1.67860   -1.000
 4969.00    1.66030   1.69101   -1.000
 4970.00    1.67120   1.71026   -1.000
 4971.00    1.69304   1.73499   -1.000
 4972.00    1.72151   1.76145   -1.000
 4973.00    1.74063   1.78209   -1.000
 4974.00    1.75304   1.79049   -1.000
 4975.00    1.75420   1.78683   -1.000
 4976.00    1.73737   1.77259   -1.000
 4977.00    1.71146   1.74906   -1.000
 4978.00    1.68533   1.72249   -1.000
 4979.00    1.66199   1.69837   -1.000
 4980.00    1.64103   1.67079   -1.000
 4981.00    1.59904   1.62962   -1.000
 4982.00    1.53950   1.57809   -1.000
 4983.00    1.50632   1.53980   -1.000
 4984.00    1.52351   1.53912  180.011
 4985.00    1.57056   1.57555  174.446
 4986.00    1.62452   1.63197  170.778
 4987.00    1.67436   1.68706  171.378
 4988.00    1.69430   1.72161   -1.000
 4989.00    1.68529   1.72452   -1.000
 4990.00    1.66627   1.70948   -1.000
 4991.00    1.66078   1.69882   -1.000
 4992.00    1.67266   1.70136   -1.000
 4993.00    1.67901   1.71060   -1.000
 4994.00    1.67961   1.71848   -1.000
 4995.00    1.69181   1.72719   -1.000
 4996.00    1.70643   1.73742   -1.000
 4997.00    1.70178   1.73638   -1.000
 4998.00    1.68531   1.71366   -1.000
 4999.00    1.65070   1.67496   -1.000
 5000.00    1.62311   1.63721  180.305
 5001.00    1.61551   1.61838  178.617
 5002.00    1.62699   1.61845  177.983
 5003.00    1.63401   1.62194  180.931
 5004.00    1.62820   1.61004   -1.000
 5005.00    1.59329   1.58048  185.223
 5006.00    1.56346   1.55634  180.366
 5007.00    1.58406   1.56717   -1.000
 5008.00    1.64393   1.61335   -1.000
 5009.00    1.68607   1.65903   -1.000
 5010.00    1.68173   1.67312  182.598
 5011.00    1.63623   1.64886  189.143
 5012.00    1.58074   1.60137   -1.000
 5013.00    1.53928   1.55617  191.129
 5014.00    1.52368   1.53668  186.835
 5015.00    1.55559   1.54788  183.386
 5016.00    1.59245   1.57019   -1.000
 5017.00    1.59966   1.58426   -1.000
 5018.00    1.59097   1.58921  180.507
 5019.00    1.60086   1.59903  179.382
 5020.00    1.62714   1.61513  180.184
 5021.00    1.63496   1.62401  180.358
 5022.00    1.62542   1.62654  179.152
 5023.00    1.63411   1.63746  177.331
 5024.00    1.65845   1.66151  176.463
 5025.00    1.67551   1.68403  177.366
 5026.00    1.67279   1.68731  177.844
 5027.00    1.65498   1.67522   -1.000
 5028.00    1.64968   1.67009   -1.000
 5029.00    1.68222   1.68512  170.140
 5030.00    1.71750   1.71571  167.484
 5031.00    1.73947   1.75031  165.908
 5032.00    1.76489   1.78015  166.989
 5033.00    1.77866   1.79278  172.706
 5034.00    1.74962   1.77517   -1.000
 5035.00    1.68870   1.73170   -1.000
 5036.00    1.63899   1.68840   -1.000
 5037.00    1.62958   1.66387   -1.000
 5038.00    1.62942   1.64286  192.899
 5039.00    1.58326   1.60167   -1.000
 5040.00    1.50812   1.54431   -1.000
 5041.00    1.47103   1.51044   -1.000
 5042.00    1.52431   1.53728  176.541
 5043.00    1.63205   1.61775  169.995
 5044.00    1.72136   1.71300  166.041
 5045.00    1.77601   1.78332  161.310
 5046.00    1.66543   1.81105   -1.000
 5047.00    1.30862   1.79476   -1.000
 5048.00    0.73937   1.74629   -1.000
 5049.00    0.48876   1.69089   -1.000
 5050.00    1.51530   1.65547   -1.000
 5051.00    1.56203   1.64833   -1.000
 5052.00    1.67105   1.66532  170.058
 5053.00    1.72025   1.70164   -1.000
 5054.00    1.75675   1.74526  165.846
 5055.00    1.78666   1.77868  165.475
 5056.00    1.79753   1.79648  165.807
 5057.00    1.80038   1.80507  166.055
 5058.00    1.80194   1.81266  165.807
 5059.00    1.80201   1.82479   -1.000
 5060.00    1.80537   1.84019   -1.000
 5061.00    1.82035   1.85123   -1.000
 5062.00    1.81893   1.84329   -1.000
 5063.00    1.78052   1.80587   -1.000
 5064.00    1.71066   1.74962   -1.000
 5065.00    1.66822   1.70312   -1.000
 5066.00    1.67016   1.68609  175.211
 5067.00    1.69468   1.69111  174.679
 5068.00    1.70512   1.70327  173.785
 5069.00    1.72205   1.71724  173.035
 5070.00    1.74324   1.73032  174.523
 5071.00    1.73447   1.73362  175.326
 5072.00    1.71808   1.72524  173.171
 5073.00    1.71840   1.71785  172.027
 5074.00    1.73506   1.72147  171.851
 5075.00    1.74336   1.73039  172.010
 5076.00    1.74347   1.73461  174.440
 5077.00    1.73489   1.72417  181.061
 5078.00    1.69149   1.68934  188.744
 5079.00    1.62177   1.63536  189.665
 5080.00    1.57826   1.59376  185.445
 5081.00    1.59615   1.59151  181.725
 5082.00    1.63947   1.61672   -1.000
 5083.00    1.66725   1.64725   -1.000
 5084.00    1.69799   1.67754   -1.000
 5085.00    1.73449   1.70864   -1.000
 5086.00    1.75859   1.73560   -1.000
 5087.00    1.76807   1.75324  170.809
 5088.00    1.76868   1.76291  169.607
 5089.00    1.77737   1.77070  168.692
 5090.00    1.78809   1.77978  167.638
 5091.00    1.79247   1.79288  165.732
 5092.00    1.81148   1.81173  164.757
 5093.00    1.83060   1.82925  166.697
 5094.00    1.83486   1.83069  170.283
 5095.00    1.80631   1.80745  174.045
 5096.00    1.76531   1.76441  178.194
 5097.00    1.71899   1.71373  181.379
 5098.00    1.66579   1.67072  180.969
 5099.00    1.64545   1.65450  176.199
 5100.00    1.68177   1.67703  171.664
 5101.00    1.73359   1.72268  170.713
 5102.00    1.76757   1.76072  172.022
 5103.00    1.76884   1.77083  174.328
 5104.00    1.75325   1.75956  176.519
 5105.00    1.73022   1.74022  178.688
 5106.00    1.70813   1.71716  180.506
 5107.00    1.68554   1.69323  179.982
 5108.00    1.67437   1.67468  178.771
 5109.00    1.67403   1.66782  177.258
 5110.00    1.68989   1.67775  174.719
 5111.00    1.71971   1.70417   -1.000
 5112.00    1.74905   1.73842  170.586
 5113.00    1.77381   1.76691  169.176
 5114.00    1.78840   1.78641  168.139
 5115.00    1.80366   1.80319  166.388
 5116.00    1.82032   1.82119  165.338
 5117.00    1.84114   1.83704  166.192
 5118.00    1.84823   1.84317  168.496
 5119.00    1.83250   1.83419  171.093
 5120.00    1.80118   1.81020  174.204
 5121.00    1.76705   1.77458  178.899
 5122.00    1.72780   1.73152  183.616
 5123.00    1.68498   1.68854  184.209
 5124.00    1.65821   1.65922  182.587
 5125.00    1.66105   1.65269  181.692
 5126.00    1.68320   1.66150   -1.000
 5127.00    1.69043   1.66999   -1.000
 5128.00    1.68623   1.67330  180.499
 5129.00    1.68955   1.67865  177.922
 5130.00    1.69978   1.69359  175.138
 5131.00    1.71962   1.71677  173.735
 5132.00    1.74314   1.73932  172.087
 5133.00    1.76375   1.75679  170.768
 5134.00    1.77552   1.77044  170.991
 5135.00    1.78999   1.77846  174.421
 5136.00    1.77929   1.77023  178.464
 5137.00    1.74080   1.73776  180.783
 5138.00    1.69881   1.69764  180.584
 5139.00    1.67788   1.67695  179.413
 5140.00    1.68783   1.67874  181.164
 5141.00    1.69771   1.68574  183.465
 5142.00    1.68430   1.68543  181.852
 5143.00    1.67150   1.68624  179.142
 5144.00    1.69224   1.69752  179.040
 5145.00    1.70850   1.70527  180.594
 5146.00    1.70154   1.69648  180.494
 5147.00    1.69626   1.68473  178.380
 5148.00    1.70170   1.68536   -1.000
 5149.00    1.71642   1.69454   -1.000
 5150.00    1.71622   1.69671   -1.000
 5151.00    1.69046   1.68594  184.242
 5152.00    1.67152   1.67342  182.735
 5153.00    1.67236   1.67077  178.911
 5154.00    1.69670   1.68265  174.311
 5155.00    1.73757   1.71097   -1.000
 5156.00    1.78570   1.75105   -1.000
 5157.00    1.82615   1.78934   -1.000
 5158.00    1.84676   1.81390   -1.000
 5159.00    1.85077   1.82322   -1.000
 5160.00    1.84600   1.81997   -1.000
 5161.00    1.82902   1.80462   -1.000
 5162.00    1.81205   1.77644   -1.000
 5163.00    1.79335   1.73551   -1.000
 5164.00    1.74640   1.67893   -1.000
 5165.00    1.64678   1.59400   -1.000
 5166.00    1.50330   1.47653   -1.000
 5167.00    1.38841   1.37054   -1.000
 5168.00    1.37161   1.33846   -1.000
 5169.00    1.44362   1.37855   -1.000
 5170.00    1.50586   1.42183   -1.000
 5171.00    1.46809   1.40122   -1.000
 5172.00    1.37901   1.34367   -1.000
 5173.00    1.37609   1.33687   -1.000
 5174.00    1.50669   1.42128   -1.000
 5175.00    1.65314   1.55473   -1.000
 5176.00    1.73756   1.65961   -1.000
 5177.00    1.77207   1.71081   -1.000
 5178.00    1.77935   1.72702   -1.000
 5179.00    1.76900   1.72051   -1.000
 5180.00    1.73614   1.68276   -1.000
 5181.00    1.66342   1.59420   -1.000
 5182.00    1.53151   1.46369   -1.000
 5183.00    1.39729   1.35201   -1.000
 5184.00    1.37990   1.33153   -1.000
 5185.00    1.50916   1.42436   -1.000
 5186.00    1.66640   1.56398   -1.000
 5187.00    1.74837   1.67206   -1.000
 5188.00    1.76858   1.72561   -1.000
 5189.00    1.77046   1.74044   -1.000
 5190.00    1.76339   1.72598   -1.000
 5191.00    1.72008   1.68329   -1.000
 5192.00    1.65514   1.63489   -1.000
 5193.00    1.64981   1.61773   -1.000
 5194.00    1.68194   1.63528   -1.000
 5195.00    1.70359   1.66211   -1.000
 5196.00    1.72135   1.69027   -1.000
 5197.00    1.75060   1.72312   -1.000
 5198.00    1.78234   1.75819   -1.000
 5199.00    1.81007   1.78723   -1.000
 5200.00    1.82522   1.80182   -1.000
 5201.00    1.82276   1.79746   -1.000
 5202.00    1.80161   1.77280   -1.000
 5203.00    1.76149   1.72684   -1.000
 5204.00    1.70319   1.66362   -1.000
 5205.00    1.64425   1.60158   -1.000
 5206.00    1.61937   1.56088   -1.000
 5207.00    1.61992   1.54691   -1.000
 5208.00    1.61464   1.55102   -1.000
 5209.00    1.62931   1.57318   -1.000
 5210.00    1.68330   1.62422   -1.000
 5211.00    1.75513   1.69765   -1.000
 5212.00    1.82193   1.76626   -1.000
 5213.00    1.86138   1.80463   -1.000
 5214.00    1.85382   1.80038   -1.000
 5215.00    1.80781   1.76852   -1.000
 5216.00    1.77528   1.74142   -1.000
 5217.00    1.78442   1.74692   -1.000
 5218.00    1.82680   1.78347   -1.000
 5219.00    1.86743   1.82755   -1.000
 5220.00    1.89066   1.85935   -1.000
 5221.00    1.90454   1.86963   -1.000
 5222.00    1.89199   1.85490   -1.000
 5223.00    1.84175   1.81274   -1.000
 5224.00    1.77487   1.74470   -1.000
 5225.00    1.69347   1.66208   -1.000
 5226.00    1.62395   1.59561   -1.000
 5227.00    1.62351   1.58420   -1.000
 5228.00    1.70850   1.63888   -1.000
 5229.00    1.80230   1.72731   -1.000
 5230.00    1.85293   1.79560   -1.000
 5231.00    1.86401   1.80887   -1.000
 5232.00    1.84240   1.77931   -1.000
 5233.00    1.79979   1.74374   -1.000
 5234.00    1.78239   1.73867   -1.000
 5235.00    1.81256   1.77208   -1.000
 5236.00    1.86285   1.82400   -1.000
 5237.00    1.90664   1.86991   -1.000
 5238.00    1.92641   1.89365   -1.000
 5239.00    1.92459   1.89751   -1.000
 5240.00    1.92136   1.89259   -1.000
 5241.00    1.92037   1.88660   -1.000
 5242.00    1.92327   1.88456   -1.000
 5243.00    1.92061   1.88969   -1.000
 5244.00    1.92572   1.89542   -1.000
 5245.00    1.92021   1.88480   -1.000
 5246.00    1.87291   1.84893   -1.000
 5247.00    1.81454   1.80420  175.419
 5248.00    1.79402   1.77455   -1.000
 5249.00    1.79550   1.76292   -1.000
 5250.00    1.78542   1.76092   -1.000
 5251.00    1.78380   1.76909  173.010
 5252.00    1.81086   1.78632   -1.000
 5253.00    1.83561   1.79921   -1.000
 5254.00    1.83297   1.80238   -1.000
 5255.00    1.83365   1.81031   -1.000
 5256.00    1.86854   1.84283   -1.000
 5257.00    1.92690   1.89355   -1.000
 5258.00    1.97005   1.93082   -1.000
 5259.00    1.96591   1.93324   -1.000
 5260.00    1.92497   1.89659   -1.000
 5261.00    1.85376   1.82839   -1.000
 5262.00    1.77170   1.74472   -1.000
 5263.00    1.69544   1.66454   -1.000
 5264.00    1.64124   1.60295   -1.000
 5265.00    1.62257   1.57249   -1.000
 5266.00    1.63889   1.57377   -1.000
 5267.00    1.67992   1.58552   -1.000
 5268.00    1.66657   1.57168   -1.000
 5269.00    1.59926   1.53164   -1.000
 5270.00    1.58155   1.51589   -1.000
 5271.00    1.66713   1.56802   -1.000
 5272.00    1.77269   1.66590   -1.000
 5273.00    1.81090   1.73769   -1.000
 5274.00    1.80701   1.75995   -1.000
 5275.00    1.80701   1.77069   -1.000
 5276.00    1.83805   1.80339   -1.000
 5277.00    1.91077   1.85870   -1.000
 5278.00    1.96704   1.90615   -1.000
 5279.00    1.97265   1.91684   -1.000
 5280.00    1.93397   1.88923   -1.000
 5281.00    1.88371   1.84179   -1.000
 5282.00    1.84479   1.79698   -1.000
 5283.00    1.82296   1.77644   -1.000
 5284.00    1.83778   1.79832   -1.000
 5285.00    1.87990   1.86001   -1.000
 5286.00    1.97178   1.93039   -1.000
 5287.00    2.01498   1.97223   -1.000
 5288.00    2.00936   1.98464   -1.000
 5289.00    2.01192   1.98774   -1.000
 5290.00    2.02435   1.99266   -1.000
 5291.00    2.02868   1.99537   -1.000
 5292.00    2.01273   1.98836   -1.000
 5293.00    1.99511   1.97376   -1.000
 5294.00    1.97528   1.95292   -1.000
 5295.00    1.93774   1.91414   -1.000
 5296.00    1.87400   1.85253   -1.000
 5297.00    1.80450   1.78991  176.112
 5298.00    1.78240   1.76072   -1.000
 5299.00    1.82119   1.77918   -1.000
 5300.00    1.87463   1.81941   -1.000
 5301.00    1.89942   1.85321   -1.000
 5302.00    1.91624   1.88257   -1.000
 5303.00    1.96077   1.92114   -1.000
 5304.00    2.00423   1.96671   -1.000
 5305.00    2.02703   1.99743   -1.000
 5306.00    2.02132   2.00007  161.238
 5307.00    2.00141   1.98982  159.894
 5308.00    2.00680   1.98772  158.331
 5309.00    2.02935   2.00044   -1.000
 5310.00    2.04421   2.01547   -1.000
 5311.00    2.04580   2.01753   -1.000
 5312.00    2.03942   2.00733   -1.000
 5313.00    2.03088   1.99200   -1.000
 5314.00    2.01854   1.97454   -1.000
 5315.00    1.99829   1.95557   -1.000
 5316.00    1.97801   1.93820   -1.000
 5317.00    1.96660   1.93073   -1.000
 5318.00    1.97306   1.93665   -1.000
 5319.00    1.99018   1.94631   -1.000
 5320.00    1.99404   1.94982   -1.000
 5321.00    1.98172   1.94232   -1.000
 5322.00    1.96548   1.91946   -1.000
 5323.00    1.93247   1.88248   -1.000
 5324.00    1.90142   1.84307   -1.000
 5325.00    1.89049   1.80490   -1.000
 5326.00    1.85982   1.75038   -1.000
 5327.00    1.76631   1.67548   -1.000
 5328.00    1.68090   1.62063   -1.000
 5329.00    1.70271   1.63839   -1.000
 5330.00    1.81903   1.72981   -1.000
 5331.00    1.91891   1.82899   -1.000
 5332.00    1.95483   1.88914   -1.000
 5333.00    1.96690   1.91743   -1.000
 5334.00    1.98692   1.93958   -1.000
 5335.00    2.00690   1.96235   -1.000
 5336.00    2.00610   1.97284   -1.000
 5337.00    1.99227   1.96220   -1.000
 5338.00    1.97053   1.93007   -1.000
 5339.00    1.92954   1.88070   -1.000
 5340.00    1.88679   1.83447   -1.000
 5341.00    1.87907   1.82393   -1.000
 5342.00    1.92255   1.85679   -1.000
 5343.00    1.97846   1.90019   -1.000
 5344.00    1.99590   1.92326   -1.000
 5345.00    1.97933   1.92110   -1.000
 5346.00    1.96447   1.90666   -1.000
 5347.00    1.95930   1.89068   -1.000
 5348.00    1.94779   1.87662   -1.000
 5349.00    1.93310   1.87320   -1.000
 5350.00    1.95837   1.89309   -1.000
 5351.00    2.00454   1.93165   -1.000
 5352.00    2.03391   1.97106   -1.000
 5353.00    2.04556   2.00034   -1.000
 5354.00    2.06240   2.02232   -1.000
 5355.00    2.08168   2.04414   -1.000
 5356.00    2.09943   2.06138   -1.000
 5357.00    2.11032   2.06742   -1.000
 5358.00    2.10700   2.06461   -1.000
 5359.00    2.10250   2.05487   -1.000
 5360.00    2.07835   2.03638   -1.000
 5361.00    2.04054   2.01130   -1.000
 5362.00    2.00559   1.98580  164.334
 5363.00    1.98569   1.96310   -1.000
 5364.00    1.97644   1.94345   -1.000
 5365.00    1.97131   1.92753   -1.000
 5366.00    1.97268   1.91840   -1.000
 5367.00    1.97134   1.91387   -1.000
 5368.00    1.95863   1.89579   -1.000
 5369.00    1.91740   1.85026   -1.000
 5370.00    1.85736   1.79288   -1.000
 5371.00    1.82929   1.76238   -1.000
 5372.00    1.87510   1.79133   -1.000
 5373.00    1.96760   1.86773   -1.000
 5374.00    2.04378   1.94655   -1.000
 5375.00    2.07571   1.99372   -1.000
 5376.00    2.07845   2.00517   -1.000
 5377.00    2.07382   2.00226   -1.000
 5378.00    2.07023   2.00160   -1.000
 5379.00    2.06251   2.00228   -1.000
 5380.00    2.04515   1.99489   -1.000
 5381.00    2.03028   1.97704   -1.000
 5382.00    2.01910   1.95864   -1.000
 5383.00    2.01057   1.95106   -1.000
 5384.00    2.02052   1.95871   -1.000
 5385.00    2.04277   1.97627   -1.000
 5386.00    2.05647   1.99128   -1.000
 5387.00    2.05434   1.99083   -1.000
 5388.00    2.03513   1.97176   -1.000
 5389.00    1.99794   1.94150   -1.000
 5390.00    1.97291   1.91133   -1.000
 5391.00    1.96027   1.89117   -1.000
 5392.00    1.95655   1.88273   -1.000
 5393.00    1.95384   1.88100   -1.000
 5394.00    1.94328   1.87614   -1.000
 5395.00    1.92481   1.85755   -1.000
 5396.00    1.88735   1.82596   -1.000
 5397.00    1.86599   1.80467   -1.000
 5398.00    1.89890   1.81879   -1.000
 5399.00    1.95793   1.86246   -1.000
 5400.00    1.99026   1.90682   -1.000
 5401.00    1.99679   1.92913   -1.000
 5402.00    1.99284   1.92187   -1.000
 5403.00    1.94642   1.88139   -1.000
 5404.00    1.87019   1.81441   -1.000
 5405.00    1.81973   1.75442   -1.000
 5406.00    1.82849   1.74402   -1.000
 5407.00    1.87528   1.77932   -1.000
 5408.00    1.90529   1.81723   -1.000
 5409.00    1.89686   1.83217   -1.000
 5410.00    1.90082   1.83859   -1.000
 5411.00    1.94523   1.86885   -1.000
 5412.00    1.99784   1.91790   -1.000
 5413.00    2.02735   1.95352   -1.000
 5414.00    2.03277   1.96740   -1.000
 5415.00    2.02826   1.97500   -1.000
 5416.00    2.04484   1.99170   -1.000
 5417.00    2.06102   2.01099   -1.000
 5418.00    2.05445   2.01443   -1.000
 5419.00    2.03607   2.00142   -1.000
 5420.00    2.02342   1.98576   -1.000
 5421.00    2.02980   1.97615   -1.000
 5422.00    2.03509   1.96891   -1.000
 5423.00    2.01431   1.95607   -1.000
 5424.00    1.99043   1.94747   -1.000
 5425.00    2.00545   1.96271   -1.000
 5426.00    2.04611   1.99423   -1.000
 5427.00    2.06122   2.00663   -1.000
 5428.00    2.02075   1.97128   -1.000
 5429.00    1.95024   1.90918   -1.000
 5430.00    1.92263   1.87297   -1.000
 5431.00    1.94980   1.87734   -1.000
 5432.00    1.96446   1.89217   -1.000
 5433.00    1.94233   1.88373   -1.000
 5434.00    1.91402   1.85809   -1.000
 5435.00    1.90621   1.85100   -1.000
 5436.00    1.93911   1.88000   -1.000
 5437.00    1.99823   1.93632   -1.000
 5438.00    2.05468   1.99782   -1.000
 5439.00    2.10356   2.04467   -1.000
 5440.00    2.13203   2.07062   -1.000
 5441.00    2.13643   2.08061   -1.000
 5442.00    2.12326   2.08056   -1.000
 5443.00    2.10563   2.06452   -1.000
 5444.00    2.05751   2.02055   -1.000
 5445.00    1.97870   1.94841   -1.000
 5446.00    1.90589   1.87675   -1.000
 5447.00    1.89318   1.84952   -1.000
 5448.00    1.94242   1.88057   -1.000
 5449.00    2.01756   1.94400   -1.000
 5450.00    2.05952   1.99467   -1.000
 5451.00    2.06330   2.00926   -1.000
 5452.00    2.05537   1.99437   -1.000
 5453.00    2.02680   1.95595   -1.000
 5454.00    1.96747   1.90063   -1.000
 5455.00    1.91321   1.85479   -1.000
 5456.00    1.91909   1.85398   -1.000
 5457.00    1.98789   1.90762   -1.000
 5458.00    2.05759   1.97874   -1.000
 5459.00    2.08182   2.01665   -1.000
 5460.00    2.06407   2.01033   -1.000
 5461.00    2.02654   1.97682   -1.000
 5462.00    1.99068   1.94031   -1.000
 5463.00    1.97426   1.92248   -1.000
 5464.00    1.98969   1.93196   -1.000
 5465.00    2.02467   1.95731   -1.000
 5466.00    2.04715   1.98061   -1.000
 5467.00    2.05623   1.99494   -1.000
 5468.00    2.06266   1.99994   -1.000
 5469.00    2.05860   1.99593   -1.000
 5470.00    2.04649   1.98486   -1.000
 5471.00    2.03328   1.97078   -1.000
 5472.00    2.02034   1.95777   -1.000
 5473.00    2.00334   1.94380   -1.000
 5474.00    1.98301   1.91942   -1.000
 5475.00    1.95273   1.88174   -1.000
 5476.00    1.90950   1.84552   -1.000
 5477.00    1.90314   1.84012   -1.000
 5478.00    1.95067   1.87691   -1.000
 5479.00    2.00267   1.92006   -1.000
 5480.00    2.00247   1.93258   -1.000
 5481.00    1.97172   1.91766   -1.000
 5482.00    1.96318   1.91005   -1.000
 5483.00    1.98948   1.93613   -1.000
 5484.00    2.03493   1.98023   -1.000
 5485.00    2.05837   2.00890   -1.000
 5486.00    2.04663   2.00520   -1.000
 5487.00    2.01442   1.97992   -1.000
 5488.00    2.00529   1.95883   -1.000
 5489.00    2.02525   1.95763   -1.000
 5490.00    2.04345   1.97347   -1.000
 5491.00    2.05022   1.98937   -1.000
 5492.00    2.05793   1.99511   -1.000
 5493.00    2.05815   1.99273   -1.000
 5494.00    2.05481   1.98921   -1.000
 5495.00    2.05765   1.98637   -1.000
 5496.00    2.05040   1.97913   -1.000
 5497.00    2.03405   1.97207   -1.000
 5498.00    2.04205   1.97798   -1.000
 5499.00    2.06521   1.99094   -1.000
 5500.00    2.06640   1.99021   -1.000
 5501.00    2.04120   1.96983   -1.000
 5502.00    2.01824   1.94678   -1.000
 5503.00    2.02551   1.94048   -1.000
 5504.00    2.03616   1.94293   -1.000
 5505.00    2.01604   1.93516   -1.000
 5506.00    1.98898   1.92227   -1.000
 5507.00    1.99453   1.92370   -1.000
 5508.00    2.03031   1.94683   -1.000
 5509.00    2.05837   1.97243   -1.000
 5510.00    2.04817   1.97236   -1.000
 5511.00    2.01455   1.94537   -1.000
 5512.00    1.98381   1.91180   -1.000
 5513.00    1.96803   1.89255   -1.000
 5514.00    1.97844   1.89610   -1.000
 5515.00    2.00689   1.91656   -1.000
 5516.00    2.04180   1.94601   -1.000
 5517.00    2.07523   1.97971   -1.000
 5518.00    2.10668   2.01377   -1.000
 5519.00    2.13062   2.03959   -1.000
 5520.00    2.13277   2.04890   -1.000
 5521.00    2.12408   2.04582   -1.000
 5522.00    2.11944   2.04239   -1.000
 5523.00    2.11334   2.04124   -1.000
 5524.00    2.09861   2.03500   -1.000
 5525.00    2.07850   2.01235   -1.000
 5526.00    2.03833   1.96995   -1.000
 5527.00    1.99386   1.92076   -1.000
 5528.00    1.97435   1.89225   -1.000
 5529.00    2.00013   1.90735   -1.000
 5530.00    2.04855   1.95379   -1.000
 5531.00    2.08130   1.99734   -1.000
 5532.00    2.07624   2.01372   -1.000
 5533.00    2.06193   2.00703   -1.000
 5534.00    2.04827   1.99441   -1.000
 5535.00    2.04146   1.98683   -1.000
 5536.00    2.05239   1.98812   -1.000
 5537.00    2.06783   1.99742   -1.000
 5538.00    2.08145   2.01181   -1.000
 5539.00    2.10151   2.02946   -1.000
 5540.00    2.13224   2.04717   -1.000
 5541.00    2.14153   2.05585   -1.000
 5542.00    2.11758   2.04924   -1.000
 5543.00    2.09320   2.03379   -1.000
 5544.00    2.08964   2.02260   -1.000
 5545.00    2.09240   2.02073   -1.000
 5546.00    2.10360   2.02662   -1.000
 5547.00    2.12067   2.04061   -1.000
 5548.00    2.13751   2.06232   -1.000
 5549.00    2.16105   2.08304   -1.000
 5550.00    2.17220   2.09303   -1.000
 5551.00    2.16383   2.08943   -1.000
 5552.00    2.14595   2.07449   -1.000
 5553.00    2.12370   2.05468   -1.000
 5554.00    2.10429   2.03990   -1.000
 5555.00    2.09999   2.03594   -1.000
 5556.00    2.10721   2.03947   -1.000
 5557.00    2.11120   2.04318   -1.000
 5558.00    2.11437   2.04408   -1.000
 5559.00    2.12029   2.04504   -1.000
 5560.00    2.12482   2.04432   -1.000
 5561.00    2.11579   2.03579   -1.000
 5562.00    2.09819   2.02115   -1.000
 5563.00    2.08159   2.00911   -1.000
 5564.00    2.07226   2.00324   -1.000
 5565.00    2.06546   1.99943   -1.000
 5566.00    2.05793   1.99311   -1.000
 5567.00    2.05890   1.98655   -1.000
 5568.00    2.05966   1.98408   -1.000
 5569.00    2.05618   1.98665   -1.000
 5570.00    2.06211   1.99163   -1.000
 5571.00    2.06904   1.99316   -1.000
 5572.00    2.06533   1.98923   -1.000
 5573.00    2.05208   1.98660   -1.000
 5574.00    2.00984   1.99554  164.179
 5575.00    1.95191   2.01557   -1.000
 5576.00    1.92835   2.03119   -1.000
 5577.00    1.99722   2.03736   -1.000
 5578.00    2.10404   2.04382   -1.000
 5579.00    2.12588   2.05216   -1.000
 5580.00    2.12689   2.05588   -1.000
 5581.00    2.12272   2.05206   -1.000
 5582.00    2.11119   2.04340   -1.000
 5583.00    2.10860   2.03431   -1.000
 5584.00    2.10009   2.01780   -1.000
 5585.00    2.06396   1.98070   -1.000
 5586.00    2.00717   1.92580   -1.000
 5587.00    1.95357   1.87442   -1.000
 5588.00    1.93222   1.85119   -1.000
 5589.00    1.94814   1.86277   -1.000
 5590.00    1.98537   1.89578   -1.000
 5591.00    2.02153   1.93035   -1.000
 5592.00    2.03745   1.95087   -1.000
 5593.00    2.03156   1.96001   -1.000
 5594.00    2.03263   1.97213   -1.000
 5595.00    2.06065   1.99643   -1.000
 5596.00    2.09070   2.01946   -1.000
 5597.00    2.08189   2.01889   -1.000
 5598.00    2.04730   1.99389   -1.000
 5599.00    2.02435   1.96139   -1.000
 5600.00    2.01624   1.93510   -1.000
 5601.00    2.00545   1.91832   -1.000
 5602.00    1.99369   1.91700   -1.000
 5603.00    2.01406   1.94340   -1.000
 5604.00    2.06761   1.99670   -1.000
 5605.00    2.12481   2.05411   -1.000
 5606.00    2.16235   2.09368   -1.000
 5607.00    2.17091   2.11049   -1.000
 5608.00    2.16624   2.11195   -1.000
 5609.00    2.16773   2.10957   -1.000
 5610.00    2.17431   2.11206   -1.000
 5611.00    2.17791   2.11770   -1.000
 5612.00    2.16822   2.11077   -1.000
 5613.00    2.13765   2.07289   -1.000
 5614.00    2.07400   2.00418   -1.000
 5615.00    2.00609   1.93930   -1.000
 5616.00    1.99658   1.91906   -1.000
 5617.00    2.04219   1.94732   -1.000
 5618.00    2.08255   1.99088   -1.000
 5619.00    2.09231   2.01719   -1.000
 5620.00    2.10191   2.03083   -1.000
 5621.00    2.11774   2.04280   -1.000
 5622.00    2.11756   2.04121   -1.000
 5623.00    2.08786   2.01518   -1.000
 5624.00    2.04494   1.97826   -1.000
 5625.00    2.03122   1.95908   -1.000
 5626.00    2.05494   1.97467   -1.000
 5627.00    2.09697   2.00993   -1.000
 5628.00    2.12632   2.04456   -1.000
 5629.00    2.15036   2.07279   -1.000
 5630.00    2.16960   2.09148   -1.000
 5631.00    2.17557   2.09706   -1.000
 5632.00    2.16940   2.09094   -1.000
 5633.00    2.15663   2.07771   -1.000
 5634.00    2.14031   2.06044   -1.000
 5635.00    2.12212   2.04065   -1.000
 5636.00    2.10385   2.02225   -1.000
 5637.00    2.08537   2.01149   -1.000
 5638.00    2.08292   2.01109   -1.000
 5639.00    2.08905   2.01494   -1.000
 5640.00    2.08769   2.01381   -1.000
 5641.00    2.08122   2.00627   -1.000
 5642.00    2.08062   2.00275   -1.000
 5643.00    2.09641   2.01084   -1.000
 5644.00    2.11113   2.02385   -1.000
 5645.00    2.11855   2.03493   -1.000
 5646.00    2.13041   2.04315   -1.000
 5647.00    2.13495   2.04691   -1.000
 5648.00    2.13049   2.04500   -1.000
 5649.00    2.12958   2.04114   -1.000
 5650.00    2.12964   2.04284   -1.000
 5651.00    2.13742   2.05368   -1.000
 5652.00    2.14854   2.06414   -1.000
 5653.00    2.14187   2.06085   -1.000
 5654.00    2.12602   2.04617   -1.000
 5655.00    2.10147   2.02861   -1.000
 5656.00    2.07325   2.00478   -1.000
 5657.00    2.02768   1.96996   -1.000
 5658.00    1.98556   1.93499   -1.000
 5659.00    1.99066   1.92473   -1.000
 5660.00    2.03349   1.94702   -1.000
 5661.00    2.05756   1.97318   -1.000
 5662.00    2.05600   1.98502   -1.000
 5663.00    2.06738   2.00010   -1.000
 5664.00    2.09778   2.02608   -1.000
 5665.00    2.12315   2.04600   -1.000
 5666.00    2.11653   2.04672   -1.000
 5667.00    2.09577   2.03308   -1.000
 5668.00    2.08415   2.02230   -1.000
 5669.00    2.09004   2.02404   -1.000
 5670.00    2.10686   2.03551   -1.000
 5671.00    2.12586   2.05444   -1.000
 5672.00    2.15456   2.07885   -1.000
 5673.00    2.17522   2.09980   -1.000
 5674.00    2.18046   2.10920   -1.000
 5675.00    2.17460   2.10941   -1.000
 5676.00    2.17538   2.10798   -1.000
 5677.00    2.17821   2.10804   -1.000
 5678.00    2.17265   2.10390   -1.000
 5679.00    2.16211   2.09174   -1.000
 5680.00    2.15286   2.07445   -1.000
 5681.00    2.13406   2.05329   -1.000
 5682.00    2.10614   2.03027   -1.000
 5683.00    2.08994   2.01740   -1.000
 5684.00    2.09626   2.02214   -1.000
 5685.00    2.10707   2.03084   -1.000
 5686.00    2.09692   2.02916   -1.000
 5687.00    2.07854   2.02046   -1.000
 5688.00    2.07605   2.01821   -1.000
 5689.00    2.09545   2.03130   -1.000
 5690.00    2.13369   2.05613   -1.000
 5691.00    2.16707   2.08228   -1.000
 5692.00    2.18069   2.10106   -1.000
 5693.00    2.18253   2.10859   -1.000
 5694.00    2.17940   2.10695   -1.000
 5695.00    2.17325   2.10173   -1.000
 5696.00    2.16608   2.09439   -1.000
 5697.00    2.15318   2.08134   -1.000
 5698.00    2.13053   2.06225   -1.000
 5699.00    2.10346   2.04182   -1.000
 5700.00    2.07830   2.02301   -1.000
 5701.00    2.06232   2.00936   -1.000
 5702.00    2.05820   2.01013   -1.000
 5703.00    2.06952   2.02518   -1.000
 5704.00    2.08640   2.03775   -1.000
 5705.00    2.08295   2.03297   -1.000
 5706.00    2.05674   2.00864   -1.000
 5707.00    2.02640   1.97641   -1.000
 5708.00    2.00622   1.94980   -1.000
 5709.00    1.99037   1.93344   -1.000
 5710.00    1.99423   1.93092   -1.000
 5711.00    2.01730   1.94588   -1.000
 5712.00    2.05140   1.97789   -1.000
 5713.00    2.09974   2.02053   -1.000
 5714.00    2.14098   2.05851   -1.000
 5715.00    2.15920   2.08199   -1.000
 5716.00    2.16533   2.09562   -1.000
 5717.00    2.16435   2.10520   -1.000
 5718.00    2.17382   2.11377   -1.000
 5719.00    2.19020   2.12452   -1.000
 5720.00    2.21065   2.13781   -1.000
 5721.00    2.22241   2.15079   -1.000
 5722.00    2.22675   2.16112   -1.000
 5723.00    2.23042   2.16648   -1.000
 5724.00    2.22212   2.16228   -1.000
 5725.00    2.20158   2.14521   -1.000
 5726.00    2.17672   2.12137   -1.000
 5727.00    2.16232   2.10616   -1.000
 5728.00    2.16864   2.10941   -1.000
 5729.00    2.18386   2.11978   -1.000
 5730.00    2.18416   2.12013   -1.000
 5731.00    2.17178   2.11214   -1.000
 5732.00    2.17660   2.11122   -1.000
 5733.00    2.20139   2.12685   -1.000
 5734.00    2.22009   2.14755   -1.000
 5735.00    2.21973   2.15568   -1.000
 5736.00    2.20960   2.15059   -1.000
 5737.00    2.19945   2.14184   -1.000
 5738.00    2.19567   2.13761   -1.000
 5739.00    2.19685   2.13850   -1.000
 5740.00    2.19548   2.13896   -1.000
 5741.00    2.18691   2.13600   -1.000
 5742.00    2.17923   2.13257   -1.000
 5743.00    2.18542   2.13665   -1.000
 5744.00    2.19791   2.14976   -1.000
 5745.00    2.20934   2.16075   -1.000
 5746.00    2.21209   2.15663   -1.000
 5747.00    2.20035   2.13867   -1.000
 5748.00    2.18601   2.12654   -1.000
 5749.00    2.18841   2.13194   -1.000
 5750.00    2.20277   2.14163   -1.000
 5751.00    2.19121   2.13394   -1.000
 5752.00    2.15753   2.10285   -1.000
 5753.00    2.12740   2.07078   -1.000
 5754.00    2.12538   2.06555   -1.000
 5755.00    2.15840   2.09384   -1.000
 5756.00    2.20005   2.13678   -1.000
 5757.00    2.22984   2.16690   -1.000
 5758.00    2.23174   2.17202   -1.000
 5759.00    2.21377   2.15308   -1.000
 5760.00    2.18066   2.11887   -1.000
 5761.00    2.15026   2.08492   -1.000
 5762.00    2.13250   2.06949   -1.000
 5763.00    2.14392   2.08474   -1.000
 5764.00    2.18345   2.12551   -1.000
 5765.00    2.21809   2.16643   -1.000
 5766.00    2.22960   2.18858   -1.000
 5767.00    2.23351   2.19458   -1.000
 5768.00    2.22902   2.19214   -1.000
 5769.00    2.22425   2.18542   -1.000
 5770.00    2.21304   2.17668   -1.000
 5771.00    2.19571   2.16717   -1.000
 5772.00    2.18419   2.15691   -1.000
 5773.00    2.17590   2.14753   -1.000
 5774.00    2.16913   2.14219   -1.000
 5775.00    2.15956   2.14407  162.420
 5776.00    2.14391   2.15234  162.576
 5777.00    2.11050   2.15639   -1.000
 5778.00    2.06625   2.14374   -1.000
 5779.00    2.03068   2.11015   -1.000
 5780.00    2.01598   2.06420   -1.000
 5781.00    2.02511   2.02424  170.656
 5782.00    2.05151   2.00516   -1.000
 5783.00    2.07650   2.00499   -1.000
 5784.00    2.08840   2.00893   -1.000
 5785.00    2.09610   2.01669   -1.000
 5786.00    2.11775   2.03980   -1.000
 5787.00    2.15331   2.07467   -1.000
 5788.00    2.18139   2.10471   -1.000
 5789.00    2.18913   2.11844   -1.000
 5790.00    2.18286   2.11722   -1.000
 5791.00    2.17525   2.11454   -1.000
 5792.00    2.17859   2.12455   -1.000
 5793.00    2.19239   2.14864   -1.000
 5794.00    2.20197   2.17327   -1.000
 5795.00    2.19821   2.18300  162.208
 5796.00    2.19010   2.17240  162.579
 5797.00    2.18966   2.15374   -1.000
 5798.00    2.20231   2.14928   -1.000
 5799.00    2.23329   2.16931   -1.000
 5800.00    2.27119   2.20150   -1.000
 5801.00    2.29148   2.22267   -1.000
 5802.00    2.28282   2.22132   -1.000
 5803.00    2.25523   2.20119   -1.000
 5804.00    2.22689   2.17572   -1.000
 5805.00    2.21046   2.16001   -1.000
 5806.00    2.21393   2.15906   -1.000
 5807.00    2.22026   2.16758   -1.000
 5808.00    2.22718   2.17789   -1.000
 5809.00    2.23877   2.18735   -1.000
 5810.00    2.24947   2.19629   -1.000
 5811.00    2.26090   2.20222   -1.000
 5812.00    2.26353   2.20104   -1.000
 5813.00    2.25548   2.19030   -1.000
 5814.00    2.24010   2.17090   -1.000
 5815.00    2.22408   2.15070   -1.000
 5816.00    2.21938   2.14439   -1.000
 5817.00    2.23484   2.16044   -1.000
 5818.00    2.26128   2.18975   -1.000
 5819.00    2.28261   2.21456   -1.000
 5820.00    2.29430   2.22376   -1.000
 5821.00    2.29038   2.22025   -1.000
 5822.00    2.28420   2.21264   -1.000
 5823.00    2.28385   2.20812   -1.000
 5824.00    2.28784   2.20893   -1.000
 5825.00    2.28773   2.21236   -1.000
 5826.00    2.28502   2.21605   -1.000
 5827.00    2.28768   2.21954   -1.000
 5828.00    2.29605   2.22414   -1.000
 5829.00    2.29979   2.22895   -1.000
 5830.00    2.30397   2.23032   -1.000
 5831.00    2.30602   2.22712   -1.000
 5832.00    2.29897   2.22020   -1.000
 5833.00    2.28485   2.21060   -1.000
 5834.00    2.27726   2.20141   -1.000
 5835.00    2.27349   2.19756   -1.000
 5836.00    2.28022   2.19940   -1.000
 5837.00    2.28471   2.20133   -1.000
 5838.00    2.27752   2.20337   -1.000
 5839.00    2.27709   2.21110   -1.000
 5840.00    2.28512   2.22484   -1.000
 5841.00    2.29253   2.23790   -1.000
 5842.00    2.29854   2.24266   -1.000
 5843.00    2.29630   2.23672   -1.000
 5844.00    2.28948   2.22280   -1.000
 5845.00    2.28020   2.20482   -1.000
 5846.00    2.26164   2.18709   -1.000
 5847.00    2.24147   2.17495   -1.000
 5848.00    2.23863   2.17194   -1.000
 5849.00    2.24973   2.17477   -1.000
 5850.00    2.24886   2.17280   -1.000
 5851.00    2.23115   2.15866   -1.000
 5852.00    2.20871   2.13761   -1.000
 5853.00    2.19050   2.12227   -1.000
 5854.00    2.18754   2.11739   -1.000
 5855.00    2.19207   2.11064   -1.000
 5856.00    2.17505   2.08960   -1.000
 5857.00    2.14885   2.06393   -1.000
 5858.00    2.15003   2.05667   -1.000
 5859.00    2.17572   2.07800   -1.000
 5860.00    2.20031   2.11163   -1.000
 5861.00    2.21787   2.13516   -1.000
 5862.00    2.22374   2.14463   -1.000
 5863.00    2.22918   2.14720   -1.000
 5864.00    2.23399   2.14774   -1.000
 5865.00    2.22889   2.14337   -1.000
 5866.00    2.21781   2.13422   -1.000
 5867.00    2.21804   2.13340   -1.000
 5868.00    2.23521   2.14951   -1.000
 5869.00    2.26067   2.17226   -1.000
 5870.00    2.27784   2.18738   -1.000
 5871.00    2.27506   2.18966   -1.000
 5872.00    2.26533   2.18375   -1.000
 5873.00    2.26356   2.17816   -1.000
 5874.00    2.26455   2.17691   -1.000
 5875.00    2.26043   2.17652   -1.000
 5876.00    2.25371   2.17042   -1.000
 5877.00    2.24179   2.15631   -1.000
 5878.00    2.22799   2.13738   -1.000
 5879.00    2.20735   2.11984   -1.000
 5880.00    2.19335   2.11041   -1.000
 5881.00    2.19337   2.11136   -1.000
 5882.00    2.19651   2.11547   -1.000
 5883.00    2.18182   2.11318   -1.000
 5884.00    2.14163   2.10668   -1.000
 5885.00    2.05686   2.09731   -1.000
 5886.00    1.87773   2.06595   -1.000
 5887.00    1.61653   1.98432   -1.000
 5888.00    1.40445   1.84675   -1.000
 5889.00    1.37156   1.70209   -1.000
 5890.00    1.50317   1.62915   -1.000
 5891.00    1.65918   1.66418  184.753
 5892.00    1.70793   1.75838   -1.000
 5893.00    1.62739   1.82101   -1.000
 5894.00    1.53494   1.81106   -1.000
 5895.00    1.54769   1.75941   -1.000
 5896.00    1.68506   1.74290   -1.000
 5897.00    1.87282   1.80262   -1.000
 5898.00    2.01759   1.89962   -1.000
 5899.00    2.09708   1.98441   -1.000
 5900.00    2.14113   2.04299   -1.000
 5901.00    2.17719   2.08070   -1.000
 5902.00    2.20251   2.10233   -1.000
 5903.00    2.20973   2.11238   -1.000
 5904.00    2.21095   2.11502   -1.000
 5905.00    2.20726   2.11432   -1.000
 5906.00    2.19977   2.11628   -1.000
 5907.00    2.20391   2.12416   -1.000
 5908.00    2.21516   2.13429   -1.000
 5909.00    2.21903   2.14307   -1.000
 5910.00    2.22273   2.14951   -1.000
 5911.00    2.22121   2.14919   -1.000
 5912.00    2.20289   2.13593   -1.000
 5913.00    2.17907   2.10970   -1.000
 5914.00    2.15821   2.08238   -1.000
 5915.00    2.15051   2.07081   -1.000
 5916.00    2.15553   2.07899   -1.000
 5917.00    2.16795   2.09879   -1.000
 5918.00    2.18404   2.12062   -1.000
 5919.00    2.20261   2.13636   -1.000
 5920.00    2.21430   2.14267   -1.000
 5921.00    2.20729   2.14109   -1.000
 5922.00    2.20413   2.13737   -1.000
 5923.00    2.21254   2.13902   -1.000
 5924.00    2.22455   2.14888   -1.000
 5925.00    2.23679   2.16089   -1.000
 5926.00    2.23952   2.16587   -1.000
 5927.00    2.23254   2.15774   -1.000
 5928.00    2.21971   2.13910   -1.000
 5929.00    2.20907   2.12201   -1.000
 5930.00    2.20550   2.11976   -1.000
 5931.00    2.21134   2.13288   -1.000
 5932.00    2.22525   2.14523   -1.000
 5933.00    2.22555   2.14409   -1.000
 5934.00    2.21803   2.13427   -1.000
 5935.00    2.21680   2.13238   -1.000
 5936.00    2.22719   2.14598   -1.000
 5937.00    2.23509   2.16276   -1.000
 5938.00    2.23244   2.16950   -1.000
 5939.00    2.22010   2.16320   -1.000
 5940.00    2.20249   2.14703   -1.000
 5941.00    2.19371   2.13019   -1.000
 5942.00    2.19829   2.12461   -1.000
 5943.00    2.21435   2.13448   -1.000
 5944.00    2.22906   2.15183   -1.000
 5945.00    2.23871   2.16476   -1.000
 5946.00    2.23645   2.16453   -1.000
 5947.00    2.22538   2.15066   -1.000
 5948.00    2.20813   2.13417   -1.000
 5949.00    2.20149   2.13001   -1.000
 5950.00    2.21108   2.13718   -1.000
 5951.00    2.22279   2.14115   -1.000
 5952.00    2.22204   2.13684   -1.000
 5953.00    2.21584   2.13229   -1.000
 5954.00    2.21352   2.13443   -1.000
 5955.00    2.20896   2.13699   -1.000
 5956.00    2.19674   2.13171   -1.000
 5957.00    2.19624   2.12637   -1.000
 5958.00    2.21687   2.13369   -1.000
 5959.00    2.24190   2.15321   -1.000
 5960.00    2.26028   2.17528   -1.000
 5961.00    2.27742   2.19051   -1.000
 5962.00    2.28460   2.19496   -1.000
 5963.00    2.27810   2.19000   -1.000
 5964.00    2.26438   2.17915   -1.000
 5965.00    2.24764   2.16859   -1.000
 5966.00    2.24379   2.16668   -1.000
 5967.00    2.25272   2.17538   -1.000
 5968.00    2.26769   2.18765   -1.000
 5969.00    2.28269   2.19814   -1.000
 5970.00    2.29251   2.20623   -1.000
 5971.00    2.29356   2.21074   -1.000
 5972.00    2.28516   2.20971   -1.000
 5973.00    2.27496   2.20187   -1.000
 5974.00    2.25611   2.18560   -1.000
 5975.00    2.23443   2.16219   -1.000
 5976.00    2.21890   2.14100   -1.000
 5977.00    2.21581   2.13212   -1.000
 5978.00    2.22759   2.13856   -1.000
 5979.00    2.24544   2.15586   -1.000
 5980.00    2.25740   2.17268   -1.000
 5981.00    2.25959   2.17494   -1.000
 5982.00    2.24370   2.15644   -1.000
 5983.00    2.21763   2.12761   -1.000
 5984.00    2.19914   2.10902   -1.000
 5985.00    2.20255   2.11430   -1.000
 5986.00    2.22632   2.13527   -1.000
 5987.00    2.24612   2.15555   -1.000
 5988.00    2.25688   2.17001   -1.000
 5989.00    2.26434   2.17838   -1.000
 5990.00    2.26843   2.18022   -1.000
 5991.00    2.26439   2.18099   -1.000
 5992.00    2.26790   2.18954   -1.000
 5993.00    2.28198   2.20531   -1.000
 5994.00    2.29374   2.21561   -1.000
 5995.00    2.29302   2.20873   -1.000
 5996.00    2.27765   2.18764   -1.000
 5997.00    2.25638   2.16673   -1.000
 5998.00    2.25443   2.15927   -1.000
 5999.00    2.26510   2.16632   -1.000
 6000.00    2.26662   2.17587   -1.000
 6001.00    2.26207   2.17769   -1.000
 6002.00    2.25256   2.17185   -1.000
 6003.00    2.24581   2.16752   -1.000
 6004.00    2.24385   2.16876   -1.000
 6005.00    2.23638   2.16398   -1.000
 6006.00    2.21404   2.14540   -1.000
 6007.00    2.18719   2.12384   -1.000
 6008.00    2.17764   2.11980   -1.000
 6009.00    2.19196   2.14125   -1.000
 6010.00    2.22421   2.16756   -1.000
 6011.00    2.24754   2.17452   -1.000
 6012.00    2.24331   2.16274   -1.000
 6013.00    2.23149   2.14984   -1.000
 6014.00    2.22896   2.14799   -1.000
 6015.00    2.23383   2.15114   -1.000
 6016.00    2.23599   2.15051   -1.000
 6017.00    2.23210   2.14908   -1.000
 6018.00    2.22702   2.14734   -1.000
 6019.00    2.22157   2.13959   -1.000
 6020.00    2.22040   2.13050   -1.000
 6021.00    2.22057   2.12975   -1.000
 6022.00    2.22740   2.13827   -1.000
 6023.00    2.23684   2.15219   -1.000
 6024.00    2.24266   2.16819   -1.000
 6025.00    2.25928   2.18337   -1.000
 6026.00    2.27592   2.19534   -1.000
 6027.00    2.27961   2.20545   -1.000
 6028.00    2.28781   2.21649   -1.000
 6029.00    2.30000   2.22634   -1.000
 6030.00    2.30605   2.23245   -1.000
 6031.00    2.30715   2.23733   -1.000
 6032.00    2.30963   2.24440   -1.000
 6033.00    2.31509   2.25566   -1.000
 6034.00    2.31723   2.26908   -1.000
 6035.00    2.31435   2.27697   -1.000
 6036.00    2.31324   2.27447   -1.000
 6037.00    2.31286   2.26375   -1.000
 6038.00    2.30651   2.24960   -1.000
 6039.00    2.30364   2.23675   -1.000
 6040.00    2.29835   2.23029   -1.000
 6041.00    2.29170   2.23300   -1.000
 6042.00    2.30034   2.24234   -1.000
 6043.00    2.31737   2.25437   -1.000
 6044.00    2.32620   2.26450   -1.000
 6045.00    2.33144   2.27056   -1.000
 6046.00    2.33562   2.27404   -1.000
 6047.00    2.33518   2.27592   -1.000
 6048.00    2.33705   2.27680   -1.000
 6049.00    2.34251   2.27712   -1.000
 6050.00    2.34291   2.27539   -1.000
 6051.00    2.33806   2.26816   -1.000
 6052.00    2.33439   2.25506   -1.000
 6053.00    2.32320   2.23959   -1.000
 6054.00    2.31049   2.22477   -1.000
 6055.00    2.30182   2.21286   -1.000
 6056.00    2.29544   2.20862   -1.000
 6057.00    2.29356   2.21474   -1.000
 6058.00    2.30564   2.22725   -1.000
 6059.00    2.31520   2.23909   -1.000
 6060.00    2.31098   2.24336   -1.000
 6061.00    2.33657   2.23623   -1.000
 6062.00    2.29091   2.21765   -1.000
 6063.00    2.17904   2.19247  196.101
 6064.00    2.06857   2.17213   -1.000
 6065.00    1.27678   2.17098   -1.000
 6066.00    0.64062   2.19445   -1.000
 6067.00    1.47453   2.23080   -1.000
 6068.00    2.32872   2.26052   -1.000
 6069.00    2.43861   2.27594   -1.000
 6070.00    2.31299   2.28330   -1.000
 6071.00    2.28554   2.28783  162.568
 6072.00    2.35221   2.28901   -1.000
 6073.00    2.36228   2.28679   -1.000
 6074.00    2.35113   2.28166   -1.000
 6075.00    2.34567   2.27104   -1.000
 6076.00    2.33072   2.25377   -1.000
 6077.00    2.31001   2.23364   -1.000
 6078.00    2.29337   2.21738   -1.000
 6079.00    2.28317   2.20839   -1.000
 6080.00    2.28348   2.20270   -1.000
 6081.00    2.27788   2.19643   -1.000
 6082.00    2.26535   2.19253   -1.000
 6083.00    2.26549   2.19419   -1.000
 6084.00    2.27127   2.19897   -1.000
 6085.00    2.27640   2.20518   -1.000
 6086.00    2.28283   2.21296   -1.000
 6087.00    2.28992   2.21897   -1.000
 6088.00    2.28719   2.21721   -1.000
 6089.00    2.27219   2.20573   -1.000
 6090.00    2.26384   2.19228   -1.000
 6091.00    2.26020   2.18716   -1.000
 6092.00    2.26392   2.19370   -1.000
 6093.00    2.28054   2.20882   -1.000
 6094.00    2.30108   2.22608   -1.000
 6095.00    2.31222   2.23793   -1.000
 6096.00    2.31562   2.24235   -1.000
 6097.00    2.31292   2.24558   -1.000
 6098.00    2.31005   2.24977   -1.000
 6099.00    2.30470   2.24400   -1.000
 6100.00    2.28255   2.21603   -1.000
 6101.00    2.24076   2.16846   -1.000
 6102.00    2.19660   2.12899   -1.000
 6103.00    2.18870   2.12670   -1.000
 6104.00    2.22684   2.15919   -1.000
 6105.00    2.27027   2.19865   -1.000
 6106.00    2.28924   2.22345   -1.000
 6107.00    2.29121   2.23540   -1.000
 6108.00    2.29137   2.24431   -1.000
 6109.00    2.29631   2.25060   -1.000
 6110.00    2.29725   2.25076   -1.000
 6111.00    2.29309   2.24933   -1.000
 6112.00    2.29926   2.25364   -1.000
 6113.00    2.31325   2.26256   -1.000
 6114.00    2.32083   2.26694   -1.000
 6115.00    2.31588   2.26226   -1.000
 6116.00    2.30159   2.25436   -1.000
 6117.00    2.28994   2.24648   -1.000
 6118.00    2.28161   2.23090   -1.000
 6119.00    2.26321   2.20087   -1.000
 6120.00    2.23443   2.16194   -1.000
 6121.00    2.20632   2.13049   -1.000
 6122.00    2.20029   2.12625   -1.000
 6123.00    2.22600   2.15439   -1.000
 6124.00    2.26029   2.19193   -1.000
 6125.00    2.27876   2.21314   -1.000
 6126.00    2.27036   2.21527   -1.000
 6127.00    2.25484   2.21018   -1.000
 6128.00    2.25321   2.21176   -1.000
 6129.00    2.27025   2.22634   -1.000
 6130.00    2.29128   2.24845   -1.000
 6131.00    2.30186   2.26608   -1.000
 6132.00    2.30145   2.26777   -1.000
 6133.00    2.27628   2.24351   -1.000
 6134.00    2.23053   2.18901   -1.000
 6135.00    2.17206   2.11623   -1.000
 6136.00    2.11224   2.06093   -1.000
 6137.00    2.09152   2.05721   -1.000
 6138.00    2.12860   2.10287   -1.000
 6139.00    2.19681   2.15940   -1.000
 6140.00    2.23549   2.18982   -1.000
 6141.00    2.23827   2.19779   -1.000
 6142.00    2.24142   2.20913   -1.000
 6143.00    2.26140   2.23179   -1.000
 6144.00    2.28734   2.25326   -1.000
 6145.00    2.29783   2.26101   -1.000
 6146.00    2.28650   2.25388   -1.000
 6147.00    2.26414   2.23738   -1.000
 6148.00    2.24407   2.21868   -1.000
 6149.00    2.23026   2.20522   -1.000
 6150.00    2.22798   2.20304   -1.000
 6151.00    2.23658   2.21100   -1.000
 6152.00    2.24622   2.21944   -1.000
 6153.00    2.25001   2.21825   -1.000
 6154.00    2.24529   2.20702   -1.000
 6155.00    2.23025   2.19562   -1.000
 6156.00    2.22078   2.18971   -1.000
 6157.00    2.21028   2.18344   -1.000
 6158.00    2.19014   2.16402   -1.000
 6159.00    2.15589   2.11961   -1.000
 6160.00    2.10269   2.05233   -1.000
 6161.00    2.03619   1.98802   -1.000
 6162.00    1.99991   1.96187   -1.000
 6163.00    2.01836   1.98414   -1.000
 6164.00    2.06548   2.03440   -1.000
 6165.00    2.10467   2.08252   -1.000
 6166.00    2.12227   2.10800   -1.000
 6167.00    2.12015   2.10461   -1.000
 6168.00    2.09702   2.08137   -1.000
 6169.00    2.07361   2.06241  180.619
 6170.00    2.07602   2.07032  177.432
 6171.00    2.10679   2.10295  176.301
 6172.00    2.13918   2.13641  176.659
 6173.00    2.15303   2.15548  176.492
 6174.00    2.15643   2.16306  176.062
 6175.00    2.16033   2.16548  175.674
 6176.00    2.16254   2.16753  174.996
 6177.00    2.16983   2.17353  174.208
 6178.00    2.18193   2.18262  173.638
 6179.00    2.19218   2.19045  172.964
 6180.00    2.19772   2.19803  172.310
 6181.00    2.20436   2.20762  172.281
 6182.00    2.21181   2.21436  172.814
 6183.00    2.21398   2.21265  173.804
 6184.00    2.20703   2.20189  175.507
 6185.00    2.19184   2.18414  177.415
 6186.00    2.17347   2.16342  179.164
 6187.00    2.15226   2.14458  180.664
 6188.00    2.13365   2.12670  182.446
 6189.00    2.12028   2.10330   -1.000
 6190.00    2.09668   2.07840   -1.000
 6191.00    2.07418   2.07076  180.322
 6192.00    2.09027   2.09241  176.409
 6193.00    2.13266   2.13342  174.551
 6194.00    2.16888   2.17179  173.993
 6195.00    2.19001   2.19460  174.455
 6196.00    2.19804   2.20079  176.141
 6197.00    2.18950   2.19133  177.960
 6198.00    2.16322   2.17119  178.565
 6199.00    2.13177   2.15647   -1.000
 6200.00    2.11383   2.16169   -1.000
 6201.00    2.12412   2.18282   -1.000
 6202.00    2.15482   2.20554   -1.000
 6203.00    2.18344   2.22015   -1.000
 6204.00    2.19761   2.22681   -1.000
 6205.00    2.20717   2.23044   -1.000
 6206.00    2.21534   2.23354   -1.000
 6207.00    2.21846   2.23481  174.593
 6208.00    2.22035   2.23131  175.854
 6209.00    2.20845   2.22140  177.413
 6210.00    2.18774   2.20458  178.938
 6211.00    2.17165   2.17868  181.210
 6212.00    2.14585   2.14359  183.606
 6213.00    2.11219   2.10774  184.691
 6214.00    2.09293   2.08541  183.646
 6215.00    2.09156   2.08401  181.749
 6216.00    2.10356   2.09613  182.148
 6217.00    2.12037   2.10647   -1.000
 6218.00    2.12512   2.10500   -1.000
 6219.00    2.11468   2.09748   -1.000
 6220.00    2.12065   2.09768   -1.000
 6221.00    2.07399   2.10916   -1.000
 6222.00    1.91588   2.12365   -1.000
 6223.00    1.96834   2.13353   -1.000
 6224.00    2.16109   2.13946   -1.000
 6225.00    2.15284   2.14460  180.535
 6226.00    2.15448   2.14572  182.352
 6227.00    2.14479   2.13448  185.223
 6228.00    2.12136   2.10525   -1.000
 6229.00    2.09359   2.06502   -1.000
 6230.00    2.06302   2.03450   -1.000
 6231.00    2.04815   2.03266   -1.000
 6232.00    2.07221   2.06184  180.237
 6233.00    2.11560   2.10787  178.382
 6234.00    2.15293   2.15036  178.711
 6235.00    2.17071   2.17205  180.355
 6236.00    2.16934   2.16836  182.215
 6237.00    2.15645   2.14752  184.109
 6238.00    2.13123   2.12195  185.497
 6239.00    2.10571   2.10161  185.752
 6240.00    2.08882   2.08956  186.332
 6241.00    2.07858   2.08120  187.762
 6242.00    2.07450   2.07089  188.300
 6243.00    2.06818   2.06076  187.542
 6244.00    2.06620   2.05754  185.946
 6245.00    2.07790   2.06568  183.798
 6246.00    2.09621   2.08677  181.628
 6247.00    2.11308   2.11655  180.613
 6248.00    2.13441   2.14197  181.470
 6249.00    2.14319   2.14968  184.109
 6250.00    2.12724   2.13475  187.088
 6251.00    2.10360   2.10371  188.779
 6252.00    2.07422   2.07265  189.630
 6253.00    2.05163   2.05444  189.809
 6254.00    2.04328   2.04800  190.576
 6255.00    2.04008   2.04225  192.448
 6256.00    2.02949   2.03115  192.888
 6257.00    2.01821   2.02322  190.840
 6258.00    2.02331   2.03137  187.836
 6259.00    2.05352   2.05883  185.171
 6260.00    2.08836   2.09675  182.496
 6261.00    2.12045   2.13272  180.580
 6262.00    2.14242   2.15736  180.976
 6263.00    2.15070   2.16564  182.460
 6264.00    2.14514   2.16100  182.630
 6265.00    2.13283   2.15530   -1.000
 6266.00    2.12859   2.15748   -1.000
 6267.00    2.13264   2.16271   -1.000
 6268.00    2.13180   2.16281   -1.000
 6269.00    2.12814   2.15996   -1.000
 6270.00    2.13484   2.16122   -1.000
 6271.00    2.14352   2.16780   -1.000
 6272.00    2.14852   2.17336   -1.000
 6273.00    2.13813   2.17056   -1.000
 6274.00    2.10829   2.15725   -1.000
 6275.00    2.06844   2.13769   -1.000
 6276.00    2.02860   2.11711   -1.000
 6277.00    2.00566   2.09834   -1.000
 6278.00    1.99206   2.08261   -1.000
 6279.00    1.97180   2.07194   -1.000
 6280.00    1.94504   2.07198   -1.000
 6281.00    1.93095   2.08789   -1.000
 6282.00    1.94477   2.11629   -1.000
 6283.00    1.98686   2.14675   -1.000
 6284.00    2.03764   2.17058   -1.000
 6285.00    2.08488   2.18680   -1.000
 6286.00    2.12067   2.19995   -1.000
 6287.00    2.14826   2.21063   -1.000
 6288.00    2.16183   2.21308   -1.000
 6289.00    2.16338   2.20325   -1.000
 6290.00    2.15517   2.18532   -1.000
 6291.00    2.13810   2.16921   -1.000
 6292.00    2.12831   2.16123   -1.000
 6293.00    2.13125   2.15910   -1.000
 6294.00    2.13157   2.15452   -1.000
 6295.00    2.12177   2.14097   -1.000
 6296.00    2.10695   2.12319  187.184
 6297.00    2.09033   2.11264   -1.000
 6298.00    2.08242   2.11320   -1.000
 6299.00    2.09046   2.11575   -1.000
 6300.00    2.09309   2.11116   -1.000
 6301.00    2.09021   2.10530  188.484
 6302.00    2.09291   2.10968  185.941
 6303.00    2.10535   2.12581   -1.000
 6304.00    2.12345   2.14700   -1.000
 6305.00    2.13848   2.16806   -1.000
 6306.00    2.15550   2.18830   -1.000
 6307.00    2.17271   2.20547   -1.000
 6308.00    2.17681   2.21308   -1.000
 6309.00    2.16801   2.20836   -1.000
 6310.00    2.15665   2.19630   -1.000
 6311.00    2.14457   2.18389   -1.000
 6312.00    2.13540   2.17349   -1.000
 6313.00    2.12492   2.16165   -1.000
 6314.00    2.10776   2.14651   -1.000
 6315.00    2.09322   2.13206   -1.000
 6316.00    2.08718   2.12040   -1.000
 6317.00    2.08887   2.11187   -1.000
 6318.00    2.09427   2.11425   -1.000
 6319.00    2.10927   2.13288   -1.000
 6320.00    2.13401   2.15835   -1.000
 6321.00    2.15191   2.17937   -1.000
 6322.00    2.15834   2.19542   -1.000
 6323.00    2.16275   2.21070   -1.000
 6324.00    2.17667   2.22459   -1.000
 6325.00    2.19426   2.23261   -1.000
 6326.00    2.19783   2.23450   -1.000
 6327.00    2.19330   2.23455   -1.000
 6328.00    2.19345   2.23465   -1.000
 6329.00    2.19456   2.23427   -1.000
 6330.00    2.19212   2.23610   -1.000
 6331.00    2.19247   2.24145   -1.000
 6332.00    2.19684   2.24206   -1.000
 6333.00    2.18351   2.22690   -1.000
 6334.00    2.15094   2.19599   -1.000
 6335.00    2.12638   2.16590   -1.000
 6336.00    2.11728   2.15520   -1.000
 6337.00    2.12594   2.16618   -1.000
 6338.00    2.14988   2.18859   -1.000
 6339.00    2.17237   2.21174   -1.000
 6340.00    2.18387   2.22611   -1.000
 6341.00    2.18716   2.22496   -1.000
 6342.00    2.18172   2.21043   -1.000
 6343.00    2.16442   2.19456   -1.000
 6344.00    2.15232   2.19135   -1.000
 6345.00    2.16016   2.20380   -1.000
 6346.00    2.17523   2.22388   -1.000
 6347.00    2.18777   2.24353   -1.000
 6348.00    2.19754   2.25907   -1.000
 6349.00    2.20149   2.26942   -1.000
 6350.00    2.20238   2.27383   -1.000
 6351.00    2.19949   2.27059   -1.000
 6352.00    2.18780   2.25795   -1.000
 6353.00    2.17330   2.23814   -1.000
 6354.00    2.15446   2.21932   -1.000
 6355.00    2.13420   2.20721   -1.000
 6356.00    2.12550   2.19711   -1.000
 6357.00    2.11795   2.18142   -1.000
 6358.00    2.10029   2.16117   -1.000
 6359.00    2.08281   2.14354   -1.000
 6360.00    2.08090   2.13160   -1.000
 6361.00    2.08713   2.12519   -1.000
 6362.00    2.08875   2.12726   -1.000
 6363.00    2.09299   2.14110   -1.000
 6364.00    2.10626   2.16438   -1.000
 6365.00    2.12575   2.19102   -1.000
 6366.00    2.14155   2.21659   -1.000
 6367.00    2.15050   2.23776   -1.000
 6368.00    2.15866   2.25055   -1.000
 6369.00    2.16439   2.25518   -1.000
 6370.00    2.16658   2.25813   -1.000
 6371.00    2.16929   2.26558   -1.000
 6372.00    2.17527   2.27655   -1.000
 6373.00    2.17773   2.28465   -1.000
 6374.00    2.17243   2.28677   -1.000
 6375.00    2.16563   2.28451   -1.000
 6376.00    2.15896   2.27829   -1.000
 6377.00    2.14811   2.26787   -1.000
 6378.00    2.13341   2.25644   -1.000
 6379.00    2.12307   2.24853   -1.000
 6380.00    2.11933   2.24676   -1.000
 6381.00    2.12230   2.25040   -1.000
 6382.00    2.12700   2.25575   -1.000
 6383.00    2.12517   2.25952   -1.000
 6384.00    2.12193   2.26273   -1.000
 6385.00    2.12211   2.26841   -1.000
 6386.00    2.11647   2.27571   -1.000
 6387.00    2.10528   2.28092   -1.000
 6388.00    2.09559   2.28255   -1.000
 6389.00    2.08563   2.27891   -1.000
 6390.00    2.06843   2.26449   -1.000
 6391.00    2.04505   2.23694   -1.000
 6392.00    2.01828   2.20634   -1.000
 6393.00    1.99466   2.19295   -1.000
 6394.00    1.99313   2.20752   -1.000
 6395.00    2.01209   2.23778   -1.000
 6396.00    2.02300   2.25950   -1.000
 6397.00    2.01256   2.25469   -1.000
 6398.00    1.98537   2.22486   -1.000
 6399.00    1.94457   2.19348   -1.000
 6400.00    1.92033   2.18998   -1.000
 6401.00    1.93175   2.21986   -1.000
 6402.00    1.95920   2.26083   -1.000
 6403.00    1.97885   2.28941   -1.000
 6404.00    1.97960   2.29597   -1.000
 6405.00    1.96400   2.28251   -1.000
 6406.00    1.94102   2.25985   -1.000
 6407.00    1.91203   2.24286   -1.000
 6408.00    1.88894   2.23892   -1.000
 6409.00    1.88049   2.24199   -1.000
 6410.00    1.86836   2.24148   -1.000
 6411.00    1.84525   2.23668   -1.000
 6412.00    1.82916   2.23584   -1.000
 6413.00    1.82464   2.24246   -1.000
 6414.00    1.81927   2.25305   -1.000
 6415.00    1.81323   2.26309   -1.000
 6416.00    1.80559   2.26713   -1.000
 6417.00    1.78746   2.25954   -1.000
 6418.00    1.76369   2.23946   -1.000
 6419.00    1.73411   2.21512   -1.000
 6420.00    1.70009   2.20283   -1.000
 6421.00    1.68270   2.21448   -1.000
 6422.00    1.68490   2.24381   -1.000
 6423.00    1.69275   2.27362   -1.000
 6424.00    1.69503   2.29365   -1.000
 6425.00    1.68727   2.30501   -1.000
 6426.00    1.67456   2.31028   -1.000
 6427.00    1.65980   2.30430   -1.000
 6428.00    1.63505   2.28101   -1.000
