###################################################################
## OUTPUT of StarlightChains_v04.for    [Cid@UFSC - 01/Apr/2007] ##
###################################################################

## Some input info
NGC6441_a_2.cxt                          [arq_obs]
Base.BC03.S                              [arq_base]
NGC6441_a_2.msk                          [arq_masks]
StCv04.C99.config                        [arq_config]
  150                                    [N_base]
    0                                    [N_YAV_components = # of components with extra extinction!]
    0                                    [i_FitPowerLaw (1/0 = Yes/No)]
-9.99                                    [alpha_PowerLaw]
CCM                                      [red_law_option]
 1.458241                                [q_norm = A(l_norm)/A(V)]

## (Re)Sampling Parameters
 3359.00                                 [l_ini (A)]
 6428.00                                 [l_fin (A)]
    1.00                                 [dl    (A)]     (OBS: dl_cushion =    50.00 A)

## Normalization info
 4020.00                                 [l_norm (A) - for base]
 4010.00                                 [llow_norm (A) - window for f_obs]
 4060.00                                 [lupp_norm (A) - window for f_obs]
3.752896E-14                             [fobs_norm (in input units)]

## S/N
 4730.00                                 [llow_SN (A) - window for S/N]
 4780.00                                 [lupp_SN (A) - window for S/N]
  36.122                                 [S/N in S/N window]
  21.548                                 [S/N in norm. window]
 237.783                                 [S/N_err in S/N window]
 141.847                                 [S/N_err in norm. window]
  1.0000                                 [fscale_chi2]

## etc...
  2147483608                             [idum_orig]
  3065                                   [NOl_eff]
   751                                   [Nl_eff]
  2314    NSIGMA                         [Ntot_cliped & clip_method]
  4727870                                [Nglobal_steps]
   7                                     [N_chains]
  31                                     [NEX0s_base = N_base in EX0s-fits]
 0   0   1      159   2.0   3.245E+02    [Clip-Bug, RC-Crash & Burn-In warning-flags, n_censored_weights, wei_nsig_threshold & wei_limit]
   170    169.749    169.745      0.004  [idt_all, wdt_TotTime, wdt_UsrTime & wdt_SysTime (sec)]

## Synthesis Results - Best model ##

 2.74790E+00                             [chi2/Nl_eff]
     1.54127                             [adev (%)]

    99.76721                             [sum-of-x (%)]
 2.07915E-13                             [Flux_tot (units of input spectrum!)]
 1.37045E-08                             [Mini_tot (???)]
 6.84099E-09                             [Mcor_tot (???)]

 -15.14                                  [v0_min  (km/s)]
  25.93                                  [vd_min  (km/s)]
 1.2764                                  [AV_min  (mag)]
 0.0000                                  [YAV_min (mag)]

# j     x_j(%)      Mini_j(%)     Mcor_j(%)     age_j(yr)     Z_j      (L/M)_j    YAV?  Mstars   component_j        a/Fe...       SSP_chi2r SSP_adev(%)   SSP_AV   SSP_x(%)
  1      0.0000     0.0000E+00    0.0000E+00    1.000000E+06  0.00010  8.160E-03    0   1.0000   age020_m22            0.0000     4.6279E+03    43.7948   4.0000   101.8766
  2      4.5986     1.4694E-03    2.9437E-03    3.160000E+06  0.00010  4.759E-02    0   1.0000   age045_m22            0.0000     3.2775E+02    10.4062   3.3637    96.9154
  3      5.8818     4.6295E-03    8.8866E-03    5.010000E+06  0.00010  1.932E-02    0   0.9582   age055_m22            0.0000     7.3646E+02    18.1923   3.5921    85.9117
  4      0.0000     0.0000E+00    0.0000E+00    6.610000E+06  0.00010  9.973E-03    0   0.9297   age061_m22            0.0000     4.4888E+03    42.7955   4.0000   104.6749
  5      0.0000     0.0000E+00    0.0000E+00    8.710000E+06  0.00010  7.690E-03    0   0.9030   age067_m22            0.0000     4.4041E+03    42.3588   4.0000   105.1026
  6      0.0000     0.0000E+00    0.0000E+00    1.000000E+07  0.00010  6.375E-03    0   0.8902   age070_m22            0.0000     4.4362E+03    42.2853   4.0000   105.4044
  7      0.0000     0.0000E+00    0.0000E+00    1.445000E+07  0.00010  4.874E-03    0   0.8589   age078_m22            0.0000     3.3552E+03    37.5446   4.0000   106.7133
  8      0.0000     0.0000E+00    0.0000E+00    2.512000E+07  0.00010  4.103E-03    0   0.8174   age090_m22            0.0000     1.6088E+03    26.5817   4.0000   107.3365
  9      0.0000     0.0000E+00    0.0000E+00    4.000000E+07  0.00010  3.654E-03    0   0.7830   age104_m22            0.0000     9.2012E+02    18.5163   4.0000   106.1406
 10      0.0000     0.0000E+00    0.0000E+00    5.500000E+07  0.00010  3.093E-03    0   0.7597   age110_m22            0.0000     7.7079E+02    16.0649   4.0000   105.2578
 11      0.0000     0.0000E+00    0.0000E+00    1.015200E+08  0.00010  2.431E-03    0   0.7138   age116_m22            0.0000     5.5338E+02    12.3143   4.0000    99.1454
 12      0.0000     0.0000E+00    0.0000E+00    1.609000E+08  0.00010  1.319E-03    0   0.6775   age120_m22            0.0000     5.1532E+02    11.4924   3.5661   100.1959
 13      0.0000     0.0000E+00    0.0000E+00    2.861200E+08  0.00010  1.075E-03    0   0.6412   age125_m22            0.0000     7.9483E+02    14.8044   3.6872   101.7708
 14      0.0000     0.0000E+00    0.0000E+00    5.088000E+08  0.00010  7.183E-04    0   0.6083   age130_m22            0.0000     8.8092E+02    15.7429   3.4701   102.9483
 15      0.0000     0.0000E+00    0.0000E+00    9.047900E+08  0.00010  4.524E-04    0   0.5785   age135_m22            0.0000     8.7796E+02    15.7832   3.2682   104.1753
 16      0.0000     0.0000E+00    0.0000E+00    1.278050E+09  0.00010  3.018E-04    0   0.5588   age138_m22            0.0000     5.5239E+02    12.0868   2.7050   103.6575
 17      0.0000     0.0000E+00    0.0000E+00    1.434000E+09  0.00010  2.691E-04    0   0.5532   age139_m22            0.0000     4.9375E+02    11.3411   2.5447   103.2935
 18      0.0000     0.0000E+00    0.0000E+00    2.500000E+09  0.00010  1.582E-04    0   0.5296   age150_m22            0.0000     4.6776E+02    11.0938   2.4154   104.5767
 19      0.0000     0.0000E+00    0.0000E+00    4.250000E+09  0.00010  1.007E-04    0   0.5110   age158_m22            0.0000     3.5651E+02     9.3611   2.2491   103.3915
 20      0.0018     4.0614E-04    4.0559E-04    6.250000E+09  0.00010  6.869E-05    0   0.4985   age166_m22            0.0000     2.7982E+02     7.9782   2.1788   101.0228
 21      0.0000     0.0000E+00    0.0000E+00    7.500000E+09  0.00010  5.873E-05    0   0.4931   age171_m22            0.0000     2.7778E+02     7.9917   2.1596   100.7037
 22      0.0000     0.0000E+00    0.0000E+00    1.000000E+10  0.00010  4.481E-05    0   0.4854   age181_m22            0.0000     2.7009E+02     7.8811   2.1226   100.3051
 23      0.0079     3.4515E-03    3.3126E-03    1.300000E+10  0.00010  3.489E-05    0   0.4791   age193_m22            0.0000     2.5485E+02     7.6218   2.0650    99.7910
 24      0.0000     0.0000E+00    0.0000E+00    1.500000E+10  0.00010  3.035E-05    0   0.4766   age201_m22            0.0000     2.4573E+02     7.4881   2.0258    99.6347
 25      0.0000     0.0000E+00    0.0000E+00    1.800000E+10  0.00010  2.510E-05    0   0.4735   age213_m22            0.0000     2.2785E+02     7.2187   1.9549    99.1376
 26      0.0000     0.0000E+00    0.0000E+00    1.000000E+06  0.00040  8.458E-03    0   1.0000   age020_m32            0.0000     4.7158E+03    43.8581   4.0000   102.7281
 27      0.0000     0.0000E+00    0.0000E+00    3.160000E+06  0.00040  3.973E-02    0   1.0000   age045_m32            0.0000     1.3024E+03    24.4794   4.0000   105.3015
 28      0.0000     0.0000E+00    0.0000E+00    5.010000E+06  0.00040  1.935E-02    0   0.9532   age055_m32            0.0000     2.2321E+03    32.4344   4.0000   103.0505
 29      0.0000     0.0000E+00    0.0000E+00    6.610000E+06  0.00040  1.204E-02    0   0.9243   age061_m32            0.0000     3.6391E+03    39.3022   4.0000   105.4809
 30      0.0000     0.0000E+00    0.0000E+00    8.710000E+06  0.00040  9.433E-03    0   0.9001   age067_m32            0.0000     3.4420E+03    38.2623   4.0000   106.1777
 31      0.0000     0.0000E+00    0.0000E+00    1.000000E+07  0.00040  8.053E-03    0   0.8877   age070_m32            0.0000     3.2508E+03    37.3571   4.0000   106.2361
 32      0.0000     0.0000E+00    0.0000E+00    1.445000E+07  0.00040  7.027E-03    0   0.8578   age078_m32            0.0000     1.2501E+03    24.7130   4.0000   103.0013
 33      0.0001     1.7209E-07    2.8151E-07    2.512000E+07  0.00040  4.707E-03    0   0.8166   age090_m32            0.0000     6.6300E+02    17.4170   4.0000   100.4366
 34      0.0000     0.0000E+00    0.0000E+00    4.000000E+07  0.00040  3.714E-03    0   0.7827   age104_m32            0.0000     5.0052E+02    13.2258   4.0000    98.7255
 35      0.0000     0.0000E+00    0.0000E+00    5.500000E+07  0.00040  2.982E-03    0   0.7593   age110_m32            0.0000     4.9714E+02    12.4542   4.0000    98.2328
 36      0.0000     0.0000E+00    0.0000E+00    1.015200E+08  0.00040  2.188E-03    0   0.7143   age116_m32            0.0000     6.0813E+02    12.7461   3.8301    99.7876
 37      0.0000     0.0000E+00    0.0000E+00    1.609000E+08  0.00040  1.690E-03    0   0.6856   age120_m32            0.0000     7.1284E+02    14.0550   3.6488   101.7381
 38      0.0000     0.0000E+00    0.0000E+00    2.861200E+08  0.00040  1.152E-03    0   0.6509   age125_m32            0.0000     8.0258E+02    14.9665   3.4450   102.7343
 39      0.0000     0.0000E+00    0.0000E+00    5.088000E+08  0.00040  7.331E-04    0   0.6182   age130_m32            0.0000     8.3428E+02    15.2506   3.2883   103.1821
 40      0.0000     0.0000E+00    0.0000E+00    9.047900E+08  0.00040  3.960E-04    0   0.5890   age135_m32            0.0000     5.6626E+02    12.2450   2.8064   102.6052
 41      0.0000     0.0000E+00    0.0000E+00    1.278050E+09  0.00040  2.854E-04    0   0.5687   age138_m32            0.0000     4.9567E+02    11.5152   2.4885   105.3062
 42      0.0000     0.0000E+00    0.0000E+00    1.434000E+09  0.00040  2.531E-04    0   0.5632   age139_m32            0.0000     4.8518E+02    11.4227   2.4264   105.3334
 43      0.0000     0.0000E+00    0.0000E+00    2.500000E+09  0.00040  1.488E-04    0   0.5386   age150_m32            0.0000     3.9177E+02    10.1468   2.1678   103.6769
 44      5.2775     8.8365E-01    9.2033E-01    4.250000E+09  0.00040  9.082E-05    0   0.5199   age158_m32            0.0000     2.4892E+02     7.4906   2.0473   101.0845
 45     11.1131     2.6563E+00    2.7011E+00    6.250000E+09  0.00040  6.362E-05    0   0.5076   age166_m32            0.0000     1.9505E+02     6.5329   1.9837    98.4441
 46     16.0227     4.6068E+00    4.6393E+00    7.500000E+09  0.00040  5.289E-05    0   0.5027   age171_m32            0.0000     1.8065E+02     6.3632   1.9454    97.2606
 47      5.3446     2.0461E+00    2.0282E+00    1.000000E+10  0.00040  3.972E-05    0   0.4948   age181_m32            0.0000     1.6527E+02     6.1473   1.8855    95.8520
 48      0.0000     0.0000E+00    0.0000E+00    1.300000E+10  0.00040  3.283E-05    0   0.4870   age193_m32            0.0000     1.7344E+02     6.1994   1.8522    98.3254
 49      0.0112     5.8064E-03    5.6462E-03    1.500000E+10  0.00040  2.925E-05    0   0.4854   age201_m32            0.0000     1.8700E+02     6.4671   1.8412    99.7285
 50      0.0001     5.6233E-05    5.4287E-05    1.800000E+10  0.00040  2.469E-05    0   0.4819   age213_m32            0.0000     1.8854E+02     6.5229   1.8042   100.1901
 51      0.0000     0.0000E+00    0.0000E+00    1.000000E+06  0.00400  1.114E-02    0   1.0000   age020_m42            0.0000     4.2966E+03    42.2596   4.0000   102.5652
 52      0.0000     0.0000E+00    0.0000E+00    3.160000E+06  0.00400  4.073E-02    0   0.9999   age045_m42            0.0000     6.1932E+02    16.6640   4.0000   101.3137
 53      0.0000     0.0000E+00    0.0000E+00    5.010000E+06  0.00400  2.534E-02    0   0.9488   age055_m42            0.0000     1.6522E+03    28.0069   4.0000   103.3960
 54      0.0081     4.7399E-06    8.7547E-06    6.610000E+06  0.00400  2.583E-02    0   0.9220   age061_m42            0.0000     4.5452E+02    13.6421   4.0000    97.7819
 55      0.0000     0.0000E+00    0.0000E+00    8.710000E+06  0.00400  1.706E-02    0   0.8983   age067_m42            0.0000     4.4984E+02    14.0415   3.9503    92.9197
 56      0.0000     0.0000E+00    0.0000E+00    1.000000E+07  0.00400  1.271E-02    0   0.8862   age070_m42            0.0000     5.3299E+02    15.7914   3.9187    92.0579
 57      0.0000     0.0000E+00    0.0000E+00    1.445000E+07  0.00400  7.666E-03    0   0.8571   age078_m42            0.0000     8.2716E+02    21.3311   4.0000    96.3447
 58      0.0000     0.0000E+00    0.0000E+00    2.512000E+07  0.00400  5.070E-03    0   0.8174   age090_m42            0.0000     4.8003E+02    15.0736   3.7953    93.5657
 59      0.0000     0.0000E+00    0.0000E+00    4.000000E+07  0.00400  3.505E-03    0   0.7851   age104_m42            0.0000     3.5657E+02    12.9510   3.4966    96.0842
 60      0.0000     0.0000E+00    0.0000E+00    5.500000E+07  0.00400  3.059E-03    0   0.7629   age110_m42            0.0000     3.6071E+02    10.7302   3.5994    99.1889
 61      0.0000     0.0000E+00    0.0000E+00    1.015200E+08  0.00400  2.268E-03    0   0.7207   age116_m42            0.0000     5.9590E+02    12.7877   3.5610   102.6394
 62      0.0000     0.0000E+00    0.0000E+00    1.609000E+08  0.00400  1.720E-03    0   0.6930   age120_m42            0.0000     6.1645E+02    12.9798   3.4354   103.6932
 63      0.0000     0.0000E+00    0.0000E+00    2.861200E+08  0.00400  1.079E-03    0   0.6613   age125_m42            0.0000     5.7949E+02    12.6621   3.0776   104.2487
 64      0.0000     0.0000E+00    0.0000E+00    5.088000E+08  0.00400  6.261E-04    0   0.6313   age130_m42            0.0000     6.3353E+02    13.5086   2.8781   107.3554
 65      0.0000     0.0000E+00    0.0000E+00    9.047900E+08  0.00400  3.535E-04    0   0.6024   age135_m42            0.0000     4.1724E+02    10.7547   2.4642   108.1844
 66      0.3724     2.1153E-02    2.4734E-02    1.278050E+09  0.00400  2.677E-04    0   0.5837   age138_m42            0.0000     1.3766E+02     6.2192   1.7929   105.4789
 67      0.0000     0.0000E+00    0.0000E+00    1.434000E+09  0.00400  1.910E-04    0   0.5716   age139_m42            0.0000     1.9723E+02     7.1217   1.9609   106.2769
 68      0.0000     0.0000E+00    0.0000E+00    2.500000E+09  0.00400  9.818E-05    0   0.5463   age150_m42            0.0000     6.1033E+01     3.6678   1.6904   101.5347
 69      1.5058     4.1701E-01    4.4016E-01    4.250000E+09  0.00400  5.491E-05    0   0.5269   age158_m42            0.0000     2.7000E+01     2.7061   1.5617    99.0097
 70      0.6088     2.4004E-01    2.4770E-01    6.250000E+09  0.00400  3.857E-05    0   0.5151   age166_m42            0.0000     2.2286E+01     2.6968   1.4443    97.5340
 71      0.6080     2.8511E-01    2.9186E-01    7.500000E+09  0.00400  3.243E-05    0   0.5110   age171_m42            0.0000     2.4957E+01     2.9126   1.3731    96.8419
 72      0.0930     5.8345E-02    5.8768E-02    1.000000E+10  0.00400  2.424E-05    0   0.5028   age181_m42            0.0000     3.3017E+01     3.3913   1.3014    96.0526
 73      0.0000     0.0000E+00    0.0000E+00    1.300000E+10  0.00400  1.883E-05    0   0.4927   age193_m42            0.0000     4.2270E+01     3.8607   1.2652    95.6776
 74      0.3552     3.2060E-01    3.1593E-01    1.500000E+10  0.00400  1.685E-05    0   0.4919   age201_m42            0.0000     3.9544E+01     3.7230   1.2689    95.7453
 75      3.5766     3.7457E+00    3.6573E+00    1.800000E+10  0.00400  1.452E-05    0   0.4874   age213_m42            0.0000     3.4836E+01     3.4900   1.2825    96.0845
 76      0.0000     0.0000E+00    0.0000E+00    1.000000E+06  0.00800  1.286E-02    0   1.0000   age020_m52            0.0000     4.1049E+03    41.1437   4.0000   104.3254
 77      0.0000     0.0000E+00    0.0000E+00    3.160000E+06  0.00800  3.147E-02    0   0.9966   age045_m52            0.0000     3.6740E+03    39.4316   4.0000   105.2283
 78      0.0000     0.0000E+00    0.0000E+00    5.010000E+06  0.00800  2.664E-02    0   0.9443   age055_m52            0.0000     2.1141E+03    31.3505   4.0000   104.4380
 79      0.0000     0.0000E+00    0.0000E+00    6.610000E+06  0.00800  2.151E-02    0   0.9177   age061_m52            0.0000     4.1271E+02    14.2236   3.5167    93.5450
 80      0.0000     0.0000E+00    0.0000E+00    8.710000E+06  0.00800  1.628E-02    0   0.8948   age067_m52            0.0000     4.7073E+02    14.8112   3.9018    93.5947
 81      0.0000     0.0000E+00    0.0000E+00    1.000000E+07  0.00800  1.215E-02    0   0.8827   age070_m52            0.0000     6.6273E+02    18.7629   4.0000    97.7966
 82      0.0000     0.0000E+00    0.0000E+00    1.445000E+07  0.00800  8.739E-03    0   0.8552   age078_m52            0.0000     6.9725E+02    18.7430   4.0000   100.1024
 83      0.0000     0.0000E+00    0.0000E+00    2.512000E+07  0.00800  5.676E-03    0   0.8162   age090_m52            0.0000     4.6834E+02    13.2106   3.9173    96.9833
 84      0.0000     0.0000E+00    0.0000E+00    4.000000E+07  0.00800  3.939E-03    0   0.7841   age104_m52            0.0000     4.4704E+02    11.9682   3.7753    98.7386
 85      0.0000     0.0000E+00    0.0000E+00    5.500000E+07  0.00800  3.155E-03    0   0.7627   age110_m52            0.0000     4.6999E+02    11.5097   3.7583    99.9271
 86      0.0000     0.0000E+00    0.0000E+00    1.015200E+08  0.00800  2.206E-03    0   0.7226   age116_m52            0.0000     5.3483E+02    11.7199   3.5994   102.9961
 87      0.0000     0.0000E+00    0.0000E+00    1.609000E+08  0.00800  1.596E-03    0   0.6963   age120_m52            0.0000     5.5551E+02    12.1708   3.3961   104.3490
 88      0.0000     0.0000E+00    0.0000E+00    2.861200E+08  0.00800  1.002E-03    0   0.6665   age125_m52            0.0000     6.5312E+02    13.6210   3.1350   106.0998
 89      0.0000     0.0000E+00    0.0000E+00    5.088000E+08  0.00800  5.759E-04    0   0.6377   age130_m52            0.0000     6.4697E+02    13.4056   2.8050   109.5357
 90      0.0001     3.4377E-06    4.1912E-06    9.047900E+08  0.00800  2.972E-04    0   0.6086   age135_m52            0.0000     3.8164E+02     9.7019   2.2728   108.1123
 91      0.0000     0.0000E+00    0.0000E+00    1.278050E+09  0.00800  2.242E-04    0   0.5907   age138_m52            0.0000     1.1947E+02     5.5682   1.6444   107.5425
 92      0.0000     0.0000E+00    0.0000E+00    1.434000E+09  0.00800  1.645E-04    0   0.5787   age139_m52            0.0000     1.1057E+02     5.2119   1.7850   107.1391
 93      0.0000     0.0000E+00    0.0000E+00    2.500000E+09  0.00800  7.723E-05    0   0.5519   age150_m52            0.0000     3.7234E+01     3.5042   1.4493   103.4676
 94      0.0000     0.0000E+00    0.0000E+00    4.250000E+09  0.00800  4.151E-05    0   0.5320   age158_m52            0.0000     2.8095E+01     3.3418   1.3776   101.0568
 95      0.0000     0.0000E+00    0.0000E+00    6.250000E+09  0.00800  3.010E-05    0   0.5197   age166_m52            0.0000     3.4495E+01     3.8180   1.1967    99.4402
 96      0.0252     1.5556E-02    1.6015E-02    7.500000E+09  0.00800  2.467E-05    0   0.5139   age171_m52            0.0000     3.9536E+01     4.0389   1.1588    98.9669
 97      0.0000     0.0000E+00    0.0000E+00    1.000000E+10  0.00800  1.862E-05    0   0.5054   age181_m52            0.0000     6.1318E+01     4.8686   1.0419    98.3034
 98      0.0000     0.0000E+00    0.0000E+00    1.300000E+10  0.00800  1.433E-05    0   0.4988   age193_m52            0.0000     8.8449E+01     5.7447   0.9573    98.6831
 99      0.0000     0.0000E+00    0.0000E+00    1.500000E+10  0.00800  1.244E-05    0   0.4936   age201_m52            0.0000     1.0018E+02     6.0676   0.9318    99.0532
100      0.0000     0.0000E+00    0.0000E+00    1.800000E+10  0.00800  1.070E-05    0   0.4888   age213_m52            0.0000     1.1106E+02     6.3401   0.9016    98.8284
101      0.0000     0.0000E+00    0.0000E+00    1.000000E+06  0.02000  1.989E-02    0   1.0000   age020_m62            0.0000     4.1074E+03    41.2073   4.0000   103.0593
102      0.0000     0.0000E+00    0.0000E+00    3.160000E+06  0.02000  3.772E-02    0   0.9858   age045_m62            0.0000     3.3875E+03    38.4193   4.0000   104.1769
103      0.0000     0.0000E+00    0.0000E+00    5.010000E+06  0.02000  3.227E-02    0   0.9342   age055_m62            0.0000     1.2171E+03    24.0405   4.0000   103.9370
104      0.0000     0.0000E+00    0.0000E+00    6.610000E+06  0.02000  2.387E-02    0   0.9090   age061_m62            0.0000     8.1360E+02    20.8717   4.0000    98.0831
105      0.0000     0.0000E+00    0.0000E+00    8.710000E+06  0.02000  1.102E-02    0   0.8861   age067_m62            0.0000     1.1172E+03    23.1633   3.9187    87.3854
106      0.0000     0.0000E+00    0.0000E+00    1.000000E+07  0.02000  1.011E-02    0   0.8751   age070_m62            0.0000     8.1974E+02    20.0674   3.9503    89.2483
107      0.0000     0.0000E+00    0.0000E+00    1.445000E+07  0.02000  7.331E-03    0   0.8472   age078_m62            0.0000     6.3320E+02    17.7557   3.9726    90.2457
108      0.0000     0.0000E+00    0.0000E+00    2.512000E+07  0.02000  4.206E-03    0   0.8099   age090_m62            0.0000     6.3936E+02    18.0660   3.8853    89.8099
109      0.0000     0.0000E+00    0.0000E+00    4.000000E+07  0.02000  3.373E-03    0   0.7799   age104_m62            0.0000     4.0055E+02    12.8270   3.7287    97.1892
110      0.0000     0.0000E+00    0.0000E+00    5.500000E+07  0.02000  2.747E-03    0   0.7595   age110_m62            0.0000     4.2046E+02    11.5903   3.6825    99.9562
111      0.0000     0.0000E+00    0.0000E+00    1.015200E+08  0.02000  1.878E-03    0   0.7221   age116_m62            0.0000     5.6148E+02    12.1675   3.5743   103.7504
112      0.0000     0.0000E+00    0.0000E+00    1.609000E+08  0.02000  1.378E-03    0   0.6978   age120_m62            0.0000     6.6554E+02    13.5835   3.4405   105.6125
113      0.0000     0.0000E+00    0.0000E+00    2.861200E+08  0.02000  8.869E-04    0   0.6700   age125_m62            0.0000     8.2207E+02    15.3806   3.0959   109.1526
114      0.0000     0.0000E+00    0.0000E+00    5.088000E+08  0.02000  4.834E-04    0   0.6430   age130_m62            0.0000     6.9536E+02    13.7404   2.6762   110.8949
115      0.0000     0.0000E+00    0.0000E+00    9.047900E+08  0.02000  2.312E-04    0   0.6152   age135_m62            0.0000     3.2854E+02     8.8274   2.0673   110.4793
116      0.0000     0.0000E+00    0.0000E+00    1.278050E+09  0.02000  1.387E-04    0   0.5927   age138_m62            0.0000     1.2136E+02     5.3466   1.6822   106.5312
117      0.0000     0.0000E+00    0.0000E+00    1.434000E+09  0.02000  1.168E-04    0   0.5865   age139_m62            0.0000     9.3903E+01     4.7445   1.6534   104.9967
118      0.0000     0.0000E+00    0.0000E+00    2.500000E+09  0.02000  5.505E-05    0   0.5610   age150_m62            0.0000     4.2876E+01     3.9726   1.2958   101.9634
119      0.0000     0.0000E+00    0.0000E+00    4.250000E+09  0.02000  3.070E-05    0   0.5407   age158_m62            0.0000     8.1537E+01     5.5152   1.0262   101.3237
120      0.0000     0.0000E+00    0.0000E+00    6.250000E+09  0.02000  2.104E-05    0   0.5277   age166_m62            0.0000     1.1609E+02     6.4722   0.9053   101.4881
121      0.0000     0.0000E+00    0.0000E+00    7.500000E+09  0.02000  1.770E-05    0   0.5223   age171_m62            0.0000     1.3995E+02     7.0245   0.8243   101.7064
122      2.8360     3.3251E+00    3.4112E+00    1.000000E+10  0.02000  1.297E-05    0   0.5121   age181_m62            0.0000     1.9594E+02     8.1635   0.6788   101.9116
123      8.6593     1.3588E+01    1.3738E+01    1.300000E+10  0.02000  9.691E-06    0   0.5047   age193_m62            0.0000     2.3868E+02     8.9163   0.6035   102.0905
124      8.6254     1.5689E+01    1.5712E+01    1.500000E+10  0.02000  8.360E-06    0   0.4999   age201_m62            0.0000     2.7911E+02     9.5903   0.5403   102.1541
125     21.6817     4.7707E+01    4.7270E+01    1.800000E+10  0.02000  6.911E-06    0   0.4946   age213_m62            0.0000     3.3317E+02    10.4347   0.4756   102.1906
126      0.0000     0.0000E+00    0.0000E+00    1.000000E+06  0.05000  2.651E-02    0   0.9998   age020_m72            0.0000     4.0701E+03    40.8248   4.0000   104.1949
127      0.0000     0.0000E+00    0.0000E+00    3.160000E+06  0.05000  4.817E-02    0   0.9577   age045_m72            0.0000     2.5798E+03    33.8608   4.0000   105.9620
128      0.0000     0.0000E+00    0.0000E+00    5.010000E+06  0.05000  3.101E-02    0   0.9147   age055_m72            0.0000     1.3769E+03    26.2418   4.0000   102.7749
129      0.0000     0.0000E+00    0.0000E+00    6.610000E+06  0.05000  1.472E-02    0   0.8877   age061_m72            0.0000     8.8949E+02    22.0954   4.0000    92.1783
130      0.0000     0.0000E+00    0.0000E+00    8.710000E+06  0.05000  1.050E-02    0   0.8638   age067_m72            0.0000     1.3963E+03    26.8797   4.0000   100.6637
131      0.0000     0.0000E+00    0.0000E+00    1.000000E+07  0.05000  8.954E-03    0   0.8524   age070_m72            0.0000     2.1275E+03    30.9470   4.0000   105.5847
132      0.0000     0.0000E+00    0.0000E+00    1.445000E+07  0.05000  6.392E-03    0   0.8262   age078_m72            0.0000     1.8763E+03    29.0989   4.0000   105.7761
133      0.0000     0.0000E+00    0.0000E+00    2.512000E+07  0.05000  4.207E-03    0   0.7902   age090_m72            0.0000     8.0520E+02    19.6392   4.0000   102.9868
134      0.0000     0.0000E+00    0.0000E+00    4.000000E+07  0.05000  3.198E-03    0   0.7618   age104_m72            0.0000     4.4851E+02    10.9900   3.9667    99.2282
135      0.0000     0.0000E+00    0.0000E+00    5.500000E+07  0.05000  2.593E-03    0   0.7432   age110_m72            0.0000     5.0435E+02    11.4958   3.8841   100.8958
136      0.0000     0.0000E+00    0.0000E+00    1.015200E+08  0.05000  1.716E-03    0   0.7092   age116_m72            0.0000     6.1567E+02    12.8553   3.7026   103.0215
137      0.0000     0.0000E+00    0.0000E+00    1.609000E+08  0.05000  1.218E-03    0   0.6876   age120_m72            0.0000     7.2173E+02    14.2187   3.4354   105.5274
138      0.0000     0.0000E+00    0.0000E+00    2.861200E+08  0.05000  7.047E-04    0   0.6618   age125_m72            0.0000     7.7251E+02    14.6782   2.9261   108.7075
139      0.0000     0.0000E+00    0.0000E+00    5.088000E+08  0.05000  3.590E-04    0   0.6356   age130_m72            0.0000     5.6836E+02    12.0884   2.3592   110.9737
140      0.0000     0.0000E+00    0.0000E+00    9.047900E+08  0.05000  1.484E-04    0   0.6088   age135_m72            0.0000     1.5560E+02     6.5006   1.6151   105.0081
141      0.0000     0.0000E+00    0.0000E+00    1.278050E+09  0.05000  9.435E-05    0   0.5924   age138_m72            0.0000     1.1004E+02     5.9952   1.2297   101.8500
142      0.0000     0.0000E+00    0.0000E+00    1.434000E+09  0.05000  7.827E-05    0   0.5847   age139_m72            0.0000     9.6043E+01     5.6814   1.2433   101.2829
143      0.0000     0.0000E+00    0.0000E+00    2.500000E+09  0.05000  3.759E-05    0   0.5583   age150_m72            0.0000     1.2890E+02     6.7509   0.9344   100.3359
144      0.0000     0.0000E+00    0.0000E+00    4.250000E+09  0.05000  1.842E-05    0   0.5374   age158_m72            0.0000     2.2813E+02     8.4744   0.6582    99.1499
145      0.7698     9.6980E-01    1.0184E+00    6.250000E+09  0.05000  1.207E-05    0   0.5242   age166_m72            0.0000     3.3468E+02    10.0455   0.4393    98.4368
146      0.8669     1.3192E+00    1.3698E+00    7.500000E+09  0.05000  9.993E-06    0   0.5183   age171_m72            0.0000     3.5628E+02    10.2866   0.3997    98.3133
147      0.6963     1.4523E+00    1.4782E+00    1.000000E+10  0.05000  7.291E-06    0   0.5081   age181_m72            0.0000     4.4678E+02    11.5116   0.2908    97.8848
148      0.2024     5.7900E-01    5.8204E-01    1.300000E+10  0.05000  5.316E-06    0   0.5018   age193_m72            0.0000     6.0856E+02    13.4418   0.1291    97.2535
149      0.0170     5.7442E-02    5.7214E-02    1.500000E+10  0.05000  4.497E-06    0   0.4972   age201_m72            0.0000     6.9440E+02    14.4045   0.0666    97.2282
150      0.0001     3.4152E-04    3.3688E-04    1.800000E+10  0.05000  3.739E-06    0   0.4924   age213_m72            0.0000     8.0827E+02    15.6125  -0.0255    97.0218


## Synthesis Results - Average & Chains ##

# j      x_j: min, <> & last-chain-values for 1 ...  7 chains
  1      0.0000      0.0135      0.0000      0.0504      0.0000      0.0000      0.0032      0.0000      0.0000
  2      4.5986      2.6696      3.0583      2.8844      2.8563      2.7856      2.7624      2.6876      2.5885
  3      5.8818      5.8405      5.9296      5.9302      5.7349      6.0394      5.9828      5.9989      5.8367
  4      0.0000      0.0082      0.0222      0.0000      0.0000      0.1353      0.0000      0.0000      0.0000
  5      0.0000      0.0182      0.0000      0.0000      0.0000      0.0000      0.0235      0.0162      0.0682
  6      0.0000      0.0167      0.0000      0.0000      0.0000      0.0000      0.0000      0.0000      0.0267
  7      0.0000      0.0196      0.0000      0.0000      0.0000      0.0122      0.0000      0.0199      0.0000
  8      0.0000      0.0124      0.0000      0.0000      0.0000      0.0000      0.0117      0.0000      0.0000
  9      0.0000      0.0211      0.0142      0.0096      0.0931      0.0000      0.0000      0.0774      0.0000
 10      0.0000      0.0292      0.0000      0.0000      0.0000      0.0000      0.0000      0.0000      0.0000
 11      0.0000      0.0183      0.0608      0.0000      0.0000      0.0722      0.0020      0.0000      0.1081
 12      0.0000      0.0267      0.1483      0.0086      0.0000      0.0000      0.0000      0.0000      0.0000
 13      0.0000      0.0105      0.0000      0.0000      0.0000      0.0000      0.0000      0.0000      0.0000
 14      0.0000      0.0072      0.0000      0.0000      0.0000      0.0000      0.0000      0.0000      0.0000
 15      0.0000      0.0087      0.0000      0.0000      0.0000      0.0000      0.0000      0.0000      0.0000
 16      0.0000      0.0160      0.0000      0.0000      0.0000      0.1925      0.0000      0.0000      0.0000
 17      0.0000      0.0265      0.0000      0.0012      0.0000      0.0000      0.0000      0.0000      0.0178
 18      0.0000      0.0345      0.0301      0.1193      0.0000      0.0000      0.0000      0.0000      0.0000
 19      0.0000      0.0368      0.0000      0.0000      0.0348      0.0000      0.0000      0.0000      0.0000
 20      0.0018      0.0737      0.1845      0.0208      0.2895      0.0000      0.2002      0.0000      0.1929
 21      0.0000      0.1253      0.0961      0.1141      0.0000      0.0000      0.0000      0.1355      0.0000
 22      0.0000      0.0895      0.0292      0.0957      0.1013      0.1452      0.0000      0.0593      0.0000
 23      0.0079      0.0954      0.2049      0.0000      0.0000      0.4011      0.0000      0.0000      0.0000
 24      0.0000      0.0742      0.0616      0.0000      0.0000      0.0000      0.0637      0.0691      0.1192
 25      0.0000      0.1934      0.0000      0.0000      0.5259      0.2424      0.6646      0.4668      0.4732
 26      0.0000      0.0090      0.0000      0.0000      0.0000      0.0000      0.0000      0.0000      0.0000
 27      0.0000      0.0290      0.1471      0.0000      0.0000      0.0000      0.0000      0.0000      0.0109
 28      0.0000      0.0176      0.0000      0.0000      0.0279      0.0000      0.0000      0.0000      0.0000
 29      0.0000      0.0109      0.0000      0.0000      0.0325      0.0000      0.0000      0.0000      0.0000
 30      0.0000      0.0199      0.0018      0.1588      0.0000      0.0000      0.0000      0.0358      0.0000
 31      0.0000      0.0227      0.0000      0.0000      0.1814      0.0687      0.0000      0.0000      0.0000
 32      0.0000      0.0355      0.0000      0.0000      0.0003      0.0000      0.0000      0.0221      0.0000
 33      0.0001      0.0296      0.1608      0.0000      0.0550      0.0328      0.0147      0.0000      0.0000
 34      0.0000      0.0280      0.0000      0.0000      0.1919      0.0000      0.0103      0.0000      0.0000
 35      0.0000      0.0266      0.0000      0.0000      0.0000      0.0000      0.0000      0.3317      0.0000
 36      0.0000      0.0088      0.0000      0.0229      0.0624      0.0000      0.0685      0.0000      0.0280
 37      0.0000      0.0118      0.0183      0.0000      0.0000      0.0000      0.0000      0.0000      0.0000
 38      0.0000      0.0118      0.0000      0.0905      0.0000      0.0842      0.0468      0.0000      0.0000
 39      0.0000      0.0106      0.0000      0.0000      0.0000      0.0000      0.0000      0.0000      0.0000
 40      0.0000      0.0127      0.0000      0.0000      0.0000      0.0524      0.0000      0.0000      0.0000
 41      0.0000      0.0229      0.0000      0.0000      0.0890      0.1054      0.0000      0.0000      0.0360
 42      0.0000      0.0354      0.0263      0.0425      0.0170      0.0021      0.0000      0.0082      0.0000
 43      0.0000      0.0553      0.0000      0.0000      0.0000      0.0000      0.0924      0.0000      0.1831
 44      5.2775      4.9092      4.7876      5.1041      5.2010      4.8019      5.0124      4.7924      4.8200
 45     11.1131     10.1086     10.2591     10.5660      9.8846     10.4407     10.4315     10.3589     10.2389
 46     16.0227     14.9720     15.2827     15.2638     15.1946     15.5351     15.1200     15.3834     15.0677
 47      5.3446      5.6521      5.9660      5.5471      5.9500      5.7786      5.7012      5.8867      5.3615
 48      0.0000      0.2929      0.1251      0.8703      0.2111      0.0000      0.3882      0.0000      0.0000
 49      0.0112      0.2624      0.2129      0.0000      0.0000      0.0019      0.4339      0.3537      0.5775
 50      0.0001      1.2092      0.7467      1.0342      1.3808      1.0752      1.1717      0.7750      0.8737
 51      0.0000      0.0090      0.0000      0.0000      0.0000      0.0000      0.0467      0.0000      0.0115
 52      0.0000      0.0584      0.0862      0.0707      0.1630      0.0000      0.3082      0.0000      0.4588
 53      0.0000      0.0256      0.0000      0.0000      0.0000      0.0000      0.0000      0.0684      0.0000
 54      0.0081      0.0267      0.1731      0.0407      0.0379      0.0000      0.0000      0.2292      0.0000
 55      0.0000      0.0407      0.0428      0.2684      0.0000      0.0302      0.0000      0.0996      0.0000
 56      0.0000      0.0237      0.0000      0.0000      0.0000      0.0781      0.0000      0.0215      0.0000
 57      0.0000      0.0166      0.0000      0.0000      0.0000      0.0000      0.0000      0.0000      0.1460
 58      0.0000      0.0216      0.0000      0.0000      0.0000      0.0698      0.0000      0.0025      0.0000
 59      0.0000      0.0178      0.0000      0.0000      0.0159      0.0000      0.0000      0.0000      0.0000
 60      0.0000      0.0171      0.0000      0.0000      0.0000      0.0000      0.0000      0.0000      0.0000
 61      0.0000      0.0219      0.0000      0.0000      0.0000      0.0538      0.0000      0.0000      0.0522
 62      0.0000      0.0141      0.0000      0.0000      0.0000      0.0000      0.0000      0.0000      0.0000
 63      0.0000      0.0158      0.0000      0.0000      0.0000      0.0150      0.0000      0.0000      0.0000
 64      0.0000      0.0212      0.0000      0.0000      0.0000      0.0000      0.0000      0.0000      0.1891
 65      0.0000      0.0225      0.0000      0.0000      0.1352      0.0000      0.0000      0.0052      0.0290
 66      0.3724      0.0949      0.2804      0.2517      0.0000      0.0000      0.0088      0.0381      0.1489
 67      0.0000      0.0511      0.0185      0.0677      0.0085      0.0000      0.0000      0.0000      0.0000
 68      0.0000      0.1265      0.0000      0.2808      0.0733      0.0113      0.0620      1.1983      0.7203
 69      1.5058      0.3982      1.3313      0.2349      0.4114      0.4325      0.4501      0.0432      0.8331
 70      0.6088      0.4334      0.3945      0.5035      1.0953      1.3830      0.0000      0.0000      0.0780
 71      0.6080      0.4884      0.4699      0.6301      0.2042      0.0000      0.6385      0.4013      0.4322
 72      0.0930      0.4972      0.4908      0.0000      0.2622      0.0000      0.6021      0.4022      0.0030
 73      0.0000      0.3988      0.0000      0.2563      0.3753      0.8651      0.0000      0.8616      0.7980
 74      0.3552      1.2722      1.1558      0.8564      1.4523      0.8187      1.2662      1.7689      0.8528
 75      3.5766      1.7121      1.7757      2.3154      1.7862      2.1909      2.4393      1.3697      2.4130
 76      0.0000      0.0189      0.0000      0.0784      0.0000      0.0000      0.0000      0.0000      0.0000
 77      0.0000      0.0132      0.0000      0.0000      0.0079      0.0000      0.0000      0.0000      0.0000
 78      0.0000      0.0180      0.0269      0.0000      0.0000      0.0000      0.0000      0.0000      0.0000
 79      0.0000      0.0281      0.0000      0.0385      0.0234      0.0000      0.0537      0.0059      0.0000
 80      0.0000      0.0217      0.0000      0.0000      0.0082      0.0000      0.0000      0.0150      0.0000
 81      0.0000      0.0164      0.0231      0.1452      0.0000      0.0000      0.0000      0.0000      0.0000
 82      0.0000      0.0127      0.0000      0.0000      0.0441      0.0000      0.0000      0.0000      0.0666
 83      0.0000      0.0397      0.0000      0.0826      0.0024      0.0000      0.0405      0.0000      0.0257
 84      0.0000      0.0173      0.0000      0.0214      0.0000      0.0000      0.0017      0.0000      0.0000
 85      0.0000      0.0327      0.0000      0.0000      0.0000      0.2910      0.0000      0.0000      0.0000
 86      0.0000      0.0091      0.0000      0.0000      0.0000      0.0000      0.0000      0.0000      0.0000
 87      0.0000      0.0101      0.0000      0.0000      0.0000      0.0000      0.0000      0.0000      0.0000
 88      0.0000      0.0079      0.0000      0.0000      0.0000      0.0000      0.0000      0.0000      0.0000
 89      0.0000      0.0088      0.0000      0.0000      0.0000      0.0000      0.0000      0.0000      0.0000
 90      0.0001      0.0124      0.1673      0.0000      0.0000      0.0000      0.0000      0.0000      0.0000
 91      0.0000      0.0386      0.0000      0.1199      0.0908      0.0094      0.0451      0.0000      0.0293
 92      0.0000      0.0335      0.0000      0.0000      0.0000      0.0000      0.0000      0.0000      0.0000
 93      0.0000      0.0936      0.0000      0.0000      0.0476      0.2384      0.1609      0.0274      0.0689
 94      0.0000      0.1372      0.1205      0.1237      0.0000      0.0000      0.0000      0.0856      0.0783
 95      0.0000      0.1286      0.0000      0.1304      0.0000      0.0000      0.0473      0.2123      0.0931
 96      0.0252      0.1560      0.2545      0.0000      0.0000      0.0000      0.0000      0.0000      0.0426
 97      0.0000      0.1202      0.1258      0.0000      0.0000      0.0000      0.0809      0.0123      0.1840
 98      0.0000      0.1302      0.0000      0.0939      0.0558      0.0000      0.0000      0.0000      0.1351
 99      0.0000      0.1578      0.1388      0.0000      0.0174      0.0013      0.0000      0.1846      0.0000
100      0.0000      0.1375      0.1548      0.0000      0.0000      0.2399      0.1760      0.1096      0.3335
101      0.0000      0.0134      0.0000      0.0000      0.0263      0.0000      0.0000      0.0000      0.0000
102      0.0000      0.0132      0.0000      0.0000      0.0000      0.0029      0.0000      0.0000      0.1140
103      0.0000      0.0194      0.0000      0.0000      0.0000      0.0000      0.0000      0.0028      0.0000
104      0.0000      0.0291      0.0850      0.0000      0.0230      0.0000      0.0273      0.0000      0.0000
105      0.0000      0.0130      0.0000      0.0000      0.0000      0.0124      0.0645      0.0000      0.0000
106      0.0000      0.0149      0.0000      0.0000      0.0000      0.0000      0.0000      0.0003      0.0368
107      0.0000      0.0190      0.0000      0.0000      0.0000      0.0000      0.0148      0.0000      0.0000
108      0.0000      0.0112      0.0000      0.0000      0.0000      0.0000      0.0000      0.0000      0.0056
109      0.0000      0.0170      0.0000      0.0000      0.0000      0.0000      0.0179      0.0000      0.0023
110      0.0000      0.0101      0.0149      0.0000      0.0000      0.0000      0.0000      0.0000      0.1224
111      0.0000      0.0118      0.0000      0.0000      0.0000      0.0000      0.0000      0.0000      0.0000
112      0.0000      0.0121      0.0000      0.0000      0.0000      0.0000      0.0000      0.0000      0.0000
113      0.0000      0.0108      0.0039      0.1433      0.0000      0.0000      0.0000      0.0000      0.0000
114      0.0000      0.0091      0.0000      0.0000      0.0000      0.0000      0.0000      0.0000      0.0000
115      0.0000      0.0191      0.0394      0.0000      0.0000      0.0000      0.0000      0.0000      0.0000
116      0.0000      0.0298      0.0264      0.0107      0.0000      0.0000      0.0000      0.0607      0.0000
117      0.0000      0.0303      0.0000      0.0000      0.0217      0.0964      0.0235      0.0000      0.0000
118      0.0000      0.0684      0.0000      0.0000      0.0000      0.0000      0.0066      0.0000      0.0000
119      0.0000      0.0928      0.0896      0.0000      0.1530      0.0712      0.0000      0.1122      0.0627
120      0.0000      0.1074      0.0000      0.0891      0.1740      0.2438      0.0000      0.0000      0.0000
121      0.0000      0.1048      0.0000      0.0000      0.2624      0.0000      0.0000      0.0000      0.1089
122      2.8360      3.7236      3.5964      3.5541      3.5418      3.5713      3.3985      3.7675      3.9339
123      8.6593      8.4071      8.4469      8.4912      8.6426      8.2259      8.3403      8.4675      8.3855
124      8.6254      9.1037      9.1329      9.0613      9.0390      9.3350      9.1011      9.3213      8.5994
125     21.6817     21.3294     21.7321     22.1107     21.4784     21.6068     21.6727     21.4429     21.2991
126      0.0000      0.0100      0.0000      0.0103      0.0000      0.0000      0.0000      0.1137      0.0000
127      0.0000      0.0186      0.0000      0.0000      0.1457      0.0000      0.0000      0.0000      0.0000
128      0.0000      0.0288      0.0773      0.0000      0.0000      0.0000      0.0285      0.0000      0.1049
129      0.0000      0.0269      0.0000      0.0000      0.0000      0.0000      0.0000      0.0186      0.0000
130      0.0000      0.0145      0.0000      0.0000      0.0000      0.0437      0.1043      0.0000      0.0463
131      0.0000      0.0153      0.0276      0.0272      0.0000      0.0017      0.0000      0.0000      0.0000
132      0.0000      0.0130      0.0000      0.0000      0.0000      0.0000      0.0000      0.0000      0.0000
133      0.0000      0.0094      0.0000      0.0000      0.0000      0.0654      0.0000      0.0240      0.0134
134      0.0000      0.0131      0.0000      0.0248      0.0000      0.0000      0.0656      0.0000      0.0000
135      0.0000      0.0102      0.0000      0.0000      0.0000      0.0000      0.0429      0.0000      0.0000
136      0.0000      0.0125      0.0000      0.0000      0.0000      0.0095      0.0000      0.0000      0.0000
137      0.0000      0.0076      0.0000      0.0000      0.0000      0.0000      0.0000      0.0621      0.0000
138      0.0000      0.0092      0.0000      0.0000      0.0000      0.0000      0.0179      0.1331      0.0000
139      0.0000      0.0166      0.0000      0.0000      0.0000      0.0000      0.0053      0.0000      0.0000
140      0.0000      0.0289      0.0194      0.0000      0.0000      0.0000      0.0000      0.1081      0.0000
141      0.0000      0.0314      0.0000      0.1051      0.0569      0.0000      0.0000      0.0000      0.0000
142      0.0000      0.0396      0.0369      0.0000      0.0000      0.0000      0.0000      0.0000      0.0000
143      0.0000      0.0541      0.0377      0.0299      0.0000      0.0000      0.0000      0.0000      0.0000
144      0.0000      0.1344      0.0000      0.0813      0.1649      0.1183      0.5157      0.0000      0.2491
145      0.7698      0.1684      0.1695      0.1617      0.1161      0.1557      0.1289      0.0000      0.3543
146      0.8669      0.4214      0.3757      0.3285      0.4775      0.5944      0.4181      0.3919      0.5226
147      0.6963      0.3258      0.4155      0.3023      0.2871      0.3660      0.2862      0.6127      0.3106
148      0.2024      0.1960      0.2180      0.1501      0.2077      0.1963      0.1758      0.1075      0.2207
149      0.0170      0.2829      0.1553      0.3148      0.2614      0.2592      0.3888      0.2528      0.2557
150      0.0001      0.2436      0.3582      0.3402      0.2898      0.1100      0.3159      0.1956      0.2342

# j      m_j: min, <> & last-chain-values for 1 ...  7 chains
  1  0.0000E+00  4.9510E-05  0.0000E+00  1.8433E-04  0.0000E+00  0.0000E+00  1.1757E-05  0.0000E+00  0.0000E+00
  2  2.9437E-03  1.6849E-03  1.9268E-03  1.8073E-03  1.7977E-03  1.7579E-03  1.7254E-03  1.6939E-03  1.6374E-03
  3  8.8866E-03  8.7004E-03  8.8174E-03  8.7703E-03  8.5192E-03  8.9954E-03  8.8202E-03  8.9242E-03  8.7144E-03
  4  0.0000E+00  2.2993E-05  6.1984E-05  0.0000E+00  0.0000E+00  3.7891E-04  0.0000E+00  0.0000E+00  0.0000E+00
  5  0.0000E+00  6.4096E-05  0.0000E+00  0.0000E+00  0.0000E+00  0.0000E+00  8.2195E-05  5.7018E-05  2.4103E-04
  6  0.0000E+00  7.0115E-05  0.0000E+00  0.0000E+00  0.0000E+00  0.0000E+00  0.0000E+00  0.0000E+00  1.1218E-04
  7  0.0000E+00  1.0389E-04  0.0000E+00  0.0000E+00  0.0000E+00  6.4630E-05  0.0000E+00  1.0501E-04  0.0000E+00
  8  0.0000E+00  7.4125E-05  0.0000E+00  0.0000E+00  0.0000E+00  0.0000E+00  6.9210E-05  0.0000E+00  0.0000E+00
  9  0.0000E+00  1.3587E-04  9.1502E-05  6.1281E-05  5.9747E-04  0.0000E+00  0.0000E+00  4.9751E-04  0.0000E+00
 10  0.0000E+00  2.1567E-04  0.0000E+00  0.0000E+00  0.0000E+00  0.0000E+00  0.0000E+00  0.0000E+00  0.0000E+00
 11  0.0000E+00  1.6139E-04  5.3566E-04  0.0000E+00  0.0000E+00  6.3686E-04  1.7029E-05  0.0000E+00  9.5593E-04
 12  0.0000E+00  4.1191E-04  2.2840E-03  1.3221E-04  0.0000E+00  0.0000E+00  0.0000E+00  0.0000E+00  0.0000E+00
 13  0.0000E+00  1.8826E-04  0.0000E+00  0.0000E+00  0.0000E+00  0.0000E+00  0.0000E+00  0.0000E+00  0.0000E+00
 14  0.0000E+00  1.8221E-04  0.0000E+00  0.0000E+00  0.0000E+00  0.0000E+00  0.0000E+00  0.0000E+00  0.0000E+00
 15  0.0000E+00  3.3476E-04  0.0000E+00  0.0000E+00  0.0000E+00  0.0000E+00  0.0000E+00  0.0000E+00  0.0000E+00
 16  0.0000E+00  8.8869E-04  0.0000E+00  0.0000E+00  0.0000E+00  1.0703E-02  0.0000E+00  0.0000E+00  0.0000E+00
 17  0.0000E+00  1.6389E-03  0.0000E+00  7.1043E-05  0.0000E+00  0.0000E+00  0.0000E+00  0.0000E+00  1.1020E-03
 18  0.0000E+00  3.4669E-03  3.0254E-03  1.1910E-02  0.0000E+00  0.0000E+00  0.0000E+00  0.0000E+00  0.0000E+00
 19  0.0000E+00  5.6021E-03  0.0000E+00  0.0000E+00  5.2938E-03  0.0000E+00  0.0000E+00  0.0000E+00  0.0000E+00
 20  4.0559E-04  1.6056E-02  4.0140E-02  4.5018E-03  6.2932E-02  0.0000E+00  4.3185E-02  0.0000E+00  4.2150E-02
 21  0.0000E+00  3.1588E-02  2.4201E-02  2.8556E-02  0.0000E+00  0.0000E+00  0.0000E+00  3.4134E-02  0.0000E+00
 22  0.0000E+00  2.9105E-02  9.4795E-03  3.0914E-02  3.2870E-02  4.7224E-02  0.0000E+00  1.9262E-02  0.0000E+00
 23  3.3126E-03  3.9341E-02  8.4365E-02  0.0000E+00  0.0000E+00  1.6542E-01  0.0000E+00  0.0000E+00  0.0000E+00
 24  0.0000E+00  3.5018E-02  2.8988E-02  0.0000E+00  0.0000E+00  0.0000E+00  2.9742E-02  3.2553E-02  5.6363E-02
 25  0.0000E+00  1.0959E-01  0.0000E+00  0.0000E+00  2.9717E-01  1.3733E-01  3.7268E-01  2.6415E-01  2.6872E-01
 26  0.0000E+00  3.1798E-05  0.0000E+00  0.0000E+00  0.0000E+00  0.0000E+00  0.0000E+00  0.0000E+00  0.0000E+00
 27  0.0000E+00  2.1913E-05  1.1104E-04  0.0000E+00  0.0000E+00  0.0000E+00  0.0000E+00  0.0000E+00  8.2375E-06
 28  0.0000E+00  2.6069E-05  0.0000E+00  0.0000E+00  4.1140E-05  0.0000E+00  0.0000E+00  0.0000E+00  0.0000E+00
 29  0.0000E+00  2.5131E-05  0.0000E+00  0.0000E+00  7.4623E-05  0.0000E+00  0.0000E+00  0.0000E+00  0.0000E+00
 30  0.0000E+00  5.7163E-05  5.0157E-06  4.5183E-04  0.0000E+00  0.0000E+00  0.0000E+00  1.0232E-04  0.0000E+00
 31  0.0000E+00  7.4997E-05  0.0000E+00  0.0000E+00  5.9897E-04  2.2732E-04  0.0000E+00  0.0000E+00  0.0000E+00
 32  0.0000E+00  1.3033E-04  0.0000E+00  0.0000E+00  1.0883E-06  0.0000E+00  0.0000E+00  8.1062E-05  0.0000E+00
 33  2.8151E-07  1.5418E-04  8.3644E-04  0.0000E+00  2.8571E-04  1.7095E-04  7.5607E-05  0.0000E+00  0.0000E+00
 34  0.0000E+00  1.7701E-04  0.0000E+00  0.0000E+00  1.2111E-03  0.0000E+00  6.4256E-05  0.0000E+00  0.0000E+00
 35  0.0000E+00  2.0339E-04  0.0000E+00  0.0000E+00  0.0000E+00  0.0000E+00  0.0000E+00  2.5336E-03  0.0000E+00
 36  0.0000E+00  8.6696E-05  0.0000E+00  2.2280E-04  6.0976E-04  0.0000E+00  6.6519E-04  0.0000E+00  2.7521E-04
 37  0.0000E+00  1.4355E-04  2.2317E-04  0.0000E+00  0.0000E+00  0.0000E+00  0.0000E+00  0.0000E+00  0.0000E+00
 38  0.0000E+00  2.0079E-04  0.0000E+00  1.5240E-03  0.0000E+00  1.4286E-03  7.8616E-04  0.0000E+00  0.0000E+00
 39  0.0000E+00  2.6963E-04  0.0000E+00  0.0000E+00  0.0000E+00  0.0000E+00  0.0000E+00  0.0000E+00  0.0000E+00
 40  0.0000E+00  5.6886E-04  0.0000E+00  0.0000E+00  0.0000E+00  2.3397E-03  0.0000E+00  0.0000E+00  0.0000E+00
 41  0.0000E+00  1.3697E-03  0.0000E+00  0.0000E+00  5.3133E-03  6.3057E-03  0.0000E+00  0.0000E+00  2.1572E-03
 42  0.0000E+00  2.3664E-03  1.7547E-03  2.8170E-03  1.1333E-03  1.3755E-04  0.0000E+00  5.4759E-04  0.0000E+00
 43  0.0000E+00  6.0101E-03  0.0000E+00  0.0000E+00  0.0000E+00  0.0000E+00  9.9439E-03  0.0000E+00  1.9956E-02
 44  9.2033E-01  8.4409E-01  8.2171E-01  8.7127E-01  8.9176E-01  8.2552E-01  8.5292E-01  8.2288E-01  8.3061E-01
 45  2.7011E+00  2.4225E+00  2.4541E+00  2.5138E+00  2.3622E+00  2.5017E+00  2.4740E+00  2.4791E+00  2.4592E+00
 46  4.6393E+00  4.2742E+00  4.3551E+00  4.3261E+00  4.3256E+00  4.4343E+00  4.2718E+00  4.3857E+00  4.3112E+00
 47  2.0282E+00  2.1148E+00  2.2283E+00  2.0606E+00  2.2200E+00  2.1618E+00  2.1111E+00  2.1996E+00  2.0106E+00
 48  0.0000E+00  1.3051E-01  5.5652E-02  3.8496E-01  9.3787E-02  0.0000E+00  1.7119E-01  0.0000E+00  0.0000E+00
 49  5.6462E-03  1.3081E-01  1.0594E-01  0.0000E+00  0.0000E+00  9.5567E-04  2.1405E-01  1.7606E-01  2.8847E-01
 50  5.4287E-05  7.0892E-01  4.3697E-01  6.0189E-01  8.0721E-01  6.3025E-01  6.7979E-01  4.5374E-01  5.1335E-01
 51  0.0000E+00  2.4134E-05  0.0000E+00  0.0000E+00  0.0000E+00  0.0000E+00  1.2467E-04  0.0000E+00  3.1195E-05
 52  0.0000E+00  4.3063E-05  6.3468E-05  5.1780E-05  1.1983E-04  0.0000E+00  2.2493E-04  0.0000E+00  3.3906E-04
 53  0.0000E+00  2.8773E-05  0.0000E+00  0.0000E+00  0.0000E+00  0.0000E+00  0.0000E+00  7.6803E-05  0.0000E+00
 54  8.7547E-06  2.8665E-05  1.8524E-04  4.3283E-05  4.0502E-05  0.0000E+00  0.0000E+00  2.4539E-04  0.0000E+00
 55  0.0000E+00  6.4342E-05  6.7614E-05  4.2146E-04  0.0000E+00  4.7703E-05  0.0000E+00  1.5731E-04  0.0000E+00
 56  0.0000E+00  4.9645E-05  0.0000E+00  0.0000E+00  0.0000E+00  1.6356E-04  0.0000E+00  4.4882E-05  0.0000E+00
 57  0.0000E+00  5.5780E-05  0.0000E+00  0.0000E+00  0.0000E+00  0.0000E+00  0.0000E+00  0.0000E+00  4.9139E-04
 58  0.0000E+00  1.0459E-04  0.0000E+00  0.0000E+00  0.0000E+00  3.3814E-04  0.0000E+00  1.2070E-05  0.0000E+00
 59  0.0000E+00  1.1986E-04  0.0000E+00  0.0000E+00  1.0654E-04  0.0000E+00  0.0000E+00  0.0000E+00  0.0000E+00
 60  0.0000E+00  1.2839E-04  0.0000E+00  0.0000E+00  0.0000E+00  0.0000E+00  0.0000E+00  0.0000E+00  0.0000E+00
 61  0.0000E+00  2.0865E-04  0.0000E+00  0.0000E+00  0.0000E+00  5.1377E-04  0.0000E+00  0.0000E+00  4.9939E-04
 62  0.0000E+00  1.7094E-04  0.0000E+00  0.0000E+00  0.0000E+00  0.0000E+00  0.0000E+00  0.0000E+00  0.0000E+00
 63  0.0000E+00  2.9084E-04  0.0000E+00  0.0000E+00  0.0000E+00  2.7532E-04  0.0000E+00  0.0000E+00  0.0000E+00
 64  0.0000E+00  6.4130E-04  0.0000E+00  0.0000E+00  0.0000E+00  0.0000E+00  0.0000E+00  0.0000E+00  5.7411E-03
 65  0.0000E+00  1.1497E-03  0.0000E+00  0.0000E+00  6.9015E-03  0.0000E+00  0.0000E+00  2.6539E-04  1.4899E-03
 66  2.4734E-02  6.2134E-03  1.8329E-02  1.6364E-02  0.0000E+00  0.0000E+00  5.6857E-04  2.4926E-03  9.7762E-03
 67  0.0000E+00  4.5940E-03  1.6561E-03  6.0388E-03  7.6479E-04  0.0000E+00  0.0000E+00  0.0000E+00  0.0000E+00
 68  0.0000E+00  2.1149E-02  0.0000E+00  4.6591E-02  1.2224E-02  1.8824E-03  1.0253E-02  1.9999E-01  1.2066E-01
 69  4.4016E-01  1.1477E-01  3.8301E-01  6.7216E-02  1.1825E-01  1.2464E-01  1.2837E-01  1.2429E-02  2.4066E-01
 70  2.4770E-01  1.7387E-01  1.5796E-01  2.0052E-01  4.3813E-01  5.5467E-01  0.0000E+00  0.0000E+00  3.1362E-02
 71  2.9186E-01  2.3117E-01  2.2201E-01  2.9606E-01  9.6372E-02  0.0000E+00  2.9905E-01  1.8969E-01  2.0500E-01
 72  5.8768E-02  3.0974E-01  3.0525E-01  0.0000E+00  1.6292E-01  0.0000E+00  3.7125E-01  2.5026E-01  1.9003E-03
 73  0.0000E+00  3.1345E-01  0.0000E+00  1.9998E-01  2.9412E-01  6.7979E-01  0.0000E+00  6.7625E-01  6.2855E-01
 74  3.1593E-01  1.1155E+00  1.0116E+00  7.4553E-01  1.2699E+00  7.1773E-01  1.0988E+00  1.5489E+00  7.4945E-01
 75  3.6573E+00  1.7262E+00  1.7871E+00  2.3176E+00  1.7959E+00  2.2086E+00  2.4339E+00  1.3791E+00  2.4383E+00
 76  0.0000E+00  4.4062E-05  0.0000E+00  1.8179E-04  0.0000E+00  0.0000E+00  0.0000E+00  0.0000E+00  0.0000E+00
 77  0.0000E+00  1.2559E-05  0.0000E+00  0.0000E+00  7.5368E-06  0.0000E+00  0.0000E+00  0.0000E+00  0.0000E+00
 78  0.0000E+00  1.9124E-05  2.8547E-05  0.0000E+00  0.0000E+00  0.0000E+00  0.0000E+00  0.0000E+00  0.0000E+00
 79  0.0000E+00  3.5955E-05  0.0000E+00  4.8925E-05  2.9907E-05  0.0000E+00  6.8087E-05  7.5692E-06  0.0000E+00
 80  0.0000E+00  3.5887E-05  0.0000E+00  0.0000E+00  1.3441E-05  0.0000E+00  0.0000E+00  2.4746E-05  0.0000E+00
 81  0.0000E+00  3.5702E-05  5.0363E-05  3.1458E-04  0.0000E+00  0.0000E+00  0.0000E+00  0.0000E+00  0.0000E+00
 82  0.0000E+00  3.7289E-05  0.0000E+00  0.0000E+00  1.2938E-04  0.0000E+00  0.0000E+00  0.0000E+00  1.9623E-04
 83  0.0000E+00  1.7149E-04  0.0000E+00  3.5409E-04  1.0481E-05  0.0000E+00  1.7324E-04  0.0000E+00  1.1142E-04
 84  0.0000E+00  1.0372E-04  0.0000E+00  1.2704E-04  0.0000E+00  0.0000E+00  1.0194E-05  0.0000E+00  0.0000E+00
 85  0.0000E+00  2.3718E-04  0.0000E+00  0.0000E+00  0.0000E+00  2.1127E-03  0.0000E+00  0.0000E+00  0.0000E+00
 86  0.0000E+00  8.9091E-05  0.0000E+00  0.0000E+00  0.0000E+00  0.0000E+00  0.0000E+00  0.0000E+00  0.0000E+00
 87  0.0000E+00  1.3188E-04  0.0000E+00  0.0000E+00  0.0000E+00  0.0000E+00  0.0000E+00  0.0000E+00  0.0000E+00
 88  0.0000E+00  1.5741E-04  0.0000E+00  0.0000E+00  0.0000E+00  0.0000E+00  0.0000E+00  0.0000E+00  0.0000E+00
 89  0.0000E+00  2.9358E-04  0.0000E+00  0.0000E+00  0.0000E+00  0.0000E+00  0.0000E+00  0.0000E+00  0.0000E+00
 90  4.1912E-06  7.6002E-04  1.0273E-02  0.0000E+00  0.0000E+00  0.0000E+00  0.0000E+00  0.0000E+00  0.0000E+00
 91  0.0000E+00  3.0567E-03  0.0000E+00  9.4210E-03  7.1684E-03  7.4280E-04  3.5307E-03  0.0000E+00  2.3229E-03
 92  0.0000E+00  3.5430E-03  0.0000E+00  0.0000E+00  0.0000E+00  0.0000E+00  0.0000E+00  0.0000E+00  0.0000E+00
 93  0.0000E+00  2.0088E-02  0.0000E+00  0.0000E+00  1.0196E-02  5.1163E-02  3.4175E-02  5.8835E-03  1.4821E-02
 94  0.0000E+00  5.2821E-02  4.6284E-02  4.7287E-02  0.0000E+00  0.0000E+00  0.0000E+00  3.2906E-02  3.0221E-02
 95  0.0000E+00  6.6669E-02  0.0000E+00  6.7139E-02  0.0000E+00  0.0000E+00  2.4284E-02  1.0997E-01  4.8384E-02
 96  1.6015E-02  9.7580E-02  1.5893E-01  0.0000E+00  0.0000E+00  0.0000E+00  0.0000E+00  0.0000E+00  2.6700E-02
 97  0.0000E+00  9.7968E-02  1.0240E-01  0.0000E+00  0.0000E+00  0.0000E+00  6.5274E-02  1.0043E-02  1.5038E-01
 98  0.0000E+00  1.3611E-01  0.0000E+00  9.7435E-02  5.8165E-02  0.0000E+00  0.0000E+00  0.0000E+00  1.4156E-01
 99  0.0000E+00  1.8804E-01  1.6512E-01  0.0000E+00  2.0662E-02  1.5925E-03  0.0000E+00  2.1975E-01  0.0000E+00
100  0.0000E+00  1.8870E-01  2.1203E-01  0.0000E+00  0.0000E+00  3.2918E-01  2.3902E-01  1.5019E-01  4.5862E-01
101  0.0000E+00  2.0214E-05  0.0000E+00  0.0000E+00  3.9556E-05  0.0000E+00  0.0000E+00  0.0000E+00  0.0000E+00
102  0.0000E+00  1.0340E-05  0.0000E+00  0.0000E+00  0.0000E+00  2.2740E-06  0.0000E+00  0.0000E+00  8.9676E-05
103  0.0000E+00  1.6839E-05  0.0000E+00  0.0000E+00  0.0000E+00  0.0000E+00  0.0000E+00  2.4323E-06  0.0000E+00
104  0.0000E+00  3.3303E-05  9.7043E-05  0.0000E+00  2.6280E-05  0.0000E+00  3.0871E-05  0.0000E+00  0.0000E+00
105  0.0000E+00  3.1381E-05  0.0000E+00  0.0000E+00  0.0000E+00  2.9841E-05  1.5420E-04  0.0000E+00  0.0000E+00
106  0.0000E+00  3.8704E-05  0.0000E+00  0.0000E+00  0.0000E+00  0.0000E+00  0.0000E+00  8.7858E-07  9.5797E-05
107  0.0000E+00  6.5929E-05  0.0000E+00  0.0000E+00  0.0000E+00  0.0000E+00  5.0794E-05  0.0000E+00  0.0000E+00
108  0.0000E+00  6.4534E-05  0.0000E+00  0.0000E+00  0.0000E+00  0.0000E+00  0.0000E+00  0.0000E+00  3.2310E-05
109  0.0000E+00  1.1784E-04  0.0000E+00  0.0000E+00  0.0000E+00  0.0000E+00  1.2327E-04  0.0000E+00  1.5685E-05
110  0.0000E+00  8.3816E-05  1.2315E-04  0.0000E+00  0.0000E+00  0.0000E+00  0.0000E+00  0.0000E+00  1.0189E-03
111  0.0000E+00  1.3620E-04  0.0000E+00  0.0000E+00  0.0000E+00  0.0000E+00  0.0000E+00  0.0000E+00  0.0000E+00
112  0.0000E+00  1.8435E-04  0.0000E+00  0.0000E+00  0.0000E+00  0.0000E+00  0.0000E+00  0.0000E+00  0.0000E+00
113  0.0000E+00  2.4407E-04  8.8780E-05  3.2288E-03  0.0000E+00  0.0000E+00  0.0000E+00  0.0000E+00  0.0000E+00
114  0.0000E+00  3.6439E-04  0.0000E+00  0.0000E+00  0.0000E+00  0.0000E+00  0.0000E+00  0.0000E+00  0.0000E+00
115  0.0000E+00  1.5233E-03  3.1404E-03  0.0000E+00  0.0000E+00  0.0000E+00  0.0000E+00  0.0000E+00  0.0000E+00
116  0.0000E+00  3.8281E-03  3.3769E-03  1.3693E-03  0.0000E+00  0.0000E+00  0.0000E+00  7.7856E-03  0.0000E+00
117  0.0000E+00  4.5722E-03  0.0000E+00  0.0000E+00  3.2698E-03  1.4538E-02  3.5104E-03  0.0000E+00  0.0000E+00
118  0.0000E+00  2.0922E-02  0.0000E+00  0.0000E+00  0.0000E+00  0.0000E+00  1.9926E-03  0.0000E+00  0.0000E+00
119  0.0000E+00  4.9079E-02  4.7313E-02  0.0000E+00  8.0719E-02  3.7677E-02  0.0000E+00  5.9298E-02  3.3226E-02
120  0.0000E+00  8.0903E-02  0.0000E+00  6.6656E-02  1.3074E-01  1.8362E-01  0.0000E+00  0.0000E+00  0.0000E+00
121  0.0000E+00  9.2906E-02  0.0000E+00  0.0000E+00  2.3194E-01  0.0000E+00  0.0000E+00  0.0000E+00  9.6753E-02
122  3.4112E+00  4.4159E+00  4.2574E+00  4.1845E+00  4.1885E+00  4.2346E+00  3.9887E+00  4.4618E+00  4.6758E+00
123  1.3738E+01  1.3151E+01  1.3189E+01  1.3187E+01  1.3481E+01  1.2865E+01  1.2911E+01  1.3227E+01  1.3147E+01
124  1.5712E+01  1.6351E+01  1.6374E+01  1.6157E+01  1.6189E+01  1.6763E+01  1.6177E+01  1.6719E+01  1.5480E+01
125  4.7270E+01  4.5850E+01  4.6631E+01  4.7186E+01  4.6040E+01  4.6438E+01  4.6105E+01  4.6030E+01  4.5887E+01
126  0.0000E+00  1.1372E-05  0.0000E+00  1.1545E-05  0.0000E+00  0.0000E+00  0.0000E+00  1.2859E-04  0.0000E+00
127  0.0000E+00  1.1117E-05  0.0000E+00  0.0000E+00  8.6777E-05  0.0000E+00  0.0000E+00  0.0000E+00  0.0000E+00
128  0.0000E+00  2.5497E-05  6.8377E-05  0.0000E+00  0.0000E+00  0.0000E+00  2.5018E-05  0.0000E+00  9.3128E-05
129  0.0000E+00  4.8739E-05  0.0000E+00  0.0000E+00  0.0000E+00  0.0000E+00  0.0000E+00  3.3605E-05  0.0000E+00
130  0.0000E+00  3.5799E-05  0.0000E+00  0.0000E+00  0.0000E+00  1.0803E-04  2.5516E-04  0.0000E+00  1.1473E-04
131  0.0000E+00  4.3770E-05  7.8884E-05  7.7299E-05  0.0000E+00  4.7758E-06  0.0000E+00  0.0000E+00  0.0000E+00
132  0.0000E+00  5.0450E-05  0.0000E+00  0.0000E+00  0.0000E+00  0.0000E+00  0.0000E+00  0.0000E+00  0.0000E+00
133  0.0000E+00  5.2847E-05  0.0000E+00  0.0000E+00  0.0000E+00  3.6918E-04  0.0000E+00  1.3546E-04  7.5720E-05
134  0.0000E+00  9.3789E-05  0.0000E+00  1.7639E-04  0.0000E+00  0.0000E+00  4.6422E-04  0.0000E+00  0.0000E+00
135  0.0000E+00  8.8238E-05  0.0000E+00  0.0000E+00  0.0000E+00  0.0000E+00  3.6582E-04  0.0000E+00  0.0000E+00
136  0.0000E+00  1.5569E-04  0.0000E+00  0.0000E+00  0.0000E+00  1.1804E-04  0.0000E+00  0.0000E+00  0.0000E+00
137  0.0000E+00  1.2898E-04  0.0000E+00  0.0000E+00  0.0000E+00  0.0000E+00  0.0000E+00  1.0517E-03  0.0000E+00
138  0.0000E+00  2.5942E-04  0.0000E+00  0.0000E+00  0.0000E+00  0.0000E+00  4.9950E-04  3.7488E-03  0.0000E+00
139  0.0000E+00  8.8106E-04  0.0000E+00  0.0000E+00  0.0000E+00  0.0000E+00  2.7798E-04  0.0000E+00  0.0000E+00
140  0.0000E+00  3.5640E-03  2.3838E-03  0.0000E+00  0.0000E+00  0.0000E+00  0.0000E+00  1.3298E-02  0.0000E+00
141  0.0000E+00  5.9210E-03  0.0000E+00  1.9680E-02  1.0703E-02  0.0000E+00  0.0000E+00  0.0000E+00  0.0000E+00
142  0.0000E+00  8.8807E-03  8.2611E-03  0.0000E+00  0.0000E+00  0.0000E+00  0.0000E+00  0.0000E+00  0.0000E+00
143  0.0000E+00  2.4115E-02  1.6768E-02  1.3232E-02  0.0000E+00  0.0000E+00  0.0000E+00  0.0000E+00  0.0000E+00
144  0.0000E+00  1.1776E-01  0.0000E+00  7.0765E-02  1.4407E-01  1.0368E-01  4.4727E-01  0.0000E+00  2.1882E-01
145  1.0184E+00  2.1971E-01  2.2068E-01  2.0938E-01  1.5107E-01  2.0303E-01  1.6636E-01  0.0000E+00  4.6324E-01
146  1.3698E+00  6.5647E-01  5.8424E-01  5.0805E-01  7.4175E-01  9.2581E-01  6.4463E-01  6.0974E-01  8.1595E-01
147  1.4782E+00  6.8190E-01  8.6805E-01  6.2816E-01  5.9928E-01  7.6596E-01  5.9283E-01  1.2808E+00  6.5163E-01
148  5.8204E-01  5.5579E-01  6.1707E-01  4.2244E-01  5.8713E-01  5.5655E-01  4.9336E-01  3.0446E-01  6.2707E-01
149  5.7214E-02  9.3933E-01  5.1474E-01  1.0377E+00  8.6566E-01  8.6060E-01  1.2778E+00  8.3834E-01  8.5090E-01
150  3.3688E-04  9.6345E-01  1.4144E+00  1.3358E+00  1.1433E+00  4.3516E-01  1.2367E+00  7.7259E-01  9.2832E-01

# AV, chi2 & Mass for <> & i_chain = 1 ...  7 solutions
AV       1.2764      1.2694      1.2705      1.2707      1.2706      1.2714      1.2668      1.2703      1.2717
chi2 2.7479E+00  2.8206E+00  2.7990E+00  2.8067E+00  2.8008E+00  2.8012E+00  2.8001E+00  2.8060E+00  2.8039E+00
Mass 6.8410E-09  6.8727E-09  6.8958E-09  6.9356E-09  6.9035E-09  6.8929E-09  6.9207E-09  6.8908E-09  6.8790E-09
 -14.69                                  [v0_min (km/s) before EX0s...]
  26.38                                  [vd_min (km/s) before EX0s...]


## Synthetic spectrum (Best Model) ##l_obs f_obs f_syn wei
 3070    [Nl_obs]
 3359.00    0.00000   0.34683   -2.000
 3360.00    0.19023   0.32819   -1.000
 3361.00    0.20453   0.33942   -1.000
 3362.00    0.21619   0.37304   -1.000
 3363.00    0.22771   0.41224   -1.000
 3364.00    0.25331   0.43553   -1.000
 3365.00    0.26184   0.43183   -1.000
 3366.00    0.26611   0.41369   -1.000
 3367.00    0.25714   0.39573   -1.000
 3368.00    0.24168   0.37788   -1.000
 3369.00    0.23462   0.36595   -1.000
 3370.00    0.23348   0.35113   -1.000
 3371.00    0.22748   0.34392   -1.000
 3372.00    0.23427   0.35251   -1.000
 3373.00    0.24551   0.37702   -1.000
 3374.00    0.25848   0.40817   -1.000
 3375.00    0.26935   0.43750   -1.000
 3376.00    0.28654   0.45176   -1.000
 3377.00    0.29387   0.44397   -1.000
 3378.00    0.29980   0.42158   -1.000
 3379.00    0.29338   0.40267   -1.000
 3380.00    0.29067   0.39716   -1.000
 3381.00    0.28423   0.40733   -1.000
 3382.00    0.28022   0.42009   -1.000
 3383.00    0.28628   0.43204   -1.000
 3384.00    0.29860   0.44077   -1.000
 3385.00    0.30796   0.44957   -1.000
 3386.00    0.30897   0.44759   -1.000
 3387.00    0.31161   0.43945   -1.000
 3388.00    0.32360   0.43392   -1.000
 3389.00    0.32938   0.43764   -1.000
 3390.00    0.33320   0.44008   -1.000
 3391.00    0.32952   0.43282   -1.000
 3392.00    0.32617   0.41963   -1.000
 3393.00    0.32455   0.41563   -1.000
 3394.00    0.33309   0.42746   -1.000
 3395.00    0.35257   0.44856   -1.000
 3396.00    0.35609   0.46698   -1.000
 3397.00    0.37407   0.48383   -1.000
 3398.00    0.38895   0.49754   -1.000
 3399.00    0.39858   0.50287   -1.000
 3400.00    0.41256   0.49880   -1.000
 3401.00    0.40251   0.48593   -1.000
 3402.00    0.40069   0.46581   41.312
 3403.00    0.40249   0.45348   41.759
 3404.00    0.39087   0.44563   42.489
 3405.00    0.39190   0.44380   43.266
 3406.00    0.38476   0.43923   43.971
 3407.00    0.37706   0.43152   44.178
 3408.00    0.37489   0.42839   44.884
 3409.00    0.37260   0.43459   45.134
 3410.00    0.37338   0.44704   -1.000
 3411.00    0.38189   0.44349   43.506
 3412.00    0.38615   0.42684   43.155
 3413.00    0.38866   0.40759   45.009
 3414.00    0.37021   0.40052   45.850
 3415.00    0.35646   0.41602   45.757
 3416.00    0.37240   0.43815   44.628
 3417.00    0.39334   0.46086   42.716
 3418.00    0.41232   0.47784   40.695
 3419.00    0.42392   0.49233   38.639
 3420.00    0.41696   0.49700   -1.000
 3421.00    0.42229   0.48787   38.193
 3422.00    0.41973   0.46400   38.421
 3423.00    0.41791   0.44852   39.541
 3424.00    0.41710   0.44568   40.440
 3425.00    0.42224   0.45152   39.308
 3426.00    0.42210   0.45942   38.270
 3427.00    0.42900   0.47130   38.053
 3428.00    0.44541   0.49246   -1.000
 3429.00    0.45499   0.51332   -1.000
 3430.00    0.46051   0.51216   -1.000
 3431.00    0.45130   0.49033   -1.000
 3432.00    0.44542   0.46433   -1.000
 3433.00    0.43895   0.45604   39.353
 3434.00    0.43840   0.46957   37.947
 3435.00    0.44024   0.48271   -1.000
 3436.00    0.44011   0.48086   -1.000
 3437.00    0.43469   0.46282   39.068
 3438.00    0.41781   0.43666   39.668
 3439.00    0.40039   0.40662   42.049
 3440.00    0.38251   0.38168   45.389
 3441.00    0.36483   0.36291   47.257
 3442.00    0.35797   0.36226   47.373
 3443.00    0.36042   0.37239   47.176
 3444.00    0.38010   0.38790   45.333
 3445.00    0.39017   0.40470   42.862
 3446.00    0.40086   0.42741   40.489
 3447.00    0.42282   0.45163   39.065
 3448.00    0.44039   0.47572   -1.000
 3449.00    0.45606   0.49130   -1.000
 3450.00    0.46833   0.48544   -1.000
 3451.00    0.47683   0.46483   -1.000
 3452.00    0.46811   0.45074   -1.000
 3453.00    0.45887   0.45047  324.457
 3454.00    0.46040   0.46397  324.457
 3455.00    0.46968   0.47402  324.457
 3456.00    0.47640   0.46975  324.457
 3457.00    0.47261   0.45540   -1.000
 3458.00    0.45658   0.43616   -1.000
 3459.00    0.44182   0.42298   39.191
 3460.00    0.43722   0.41254   38.546
 3461.00    0.43212   0.41498   38.306
 3462.00    0.43439   0.43337  288.077
 3463.00    0.44711   0.45416  324.457
 3464.00    0.47834   0.45677   -1.000
 3465.00    0.49261   0.45048   -1.000
 3466.00    0.47597   0.45050   -1.000
 3467.00    0.46856   0.46364  324.457
 3468.00    0.48724   0.48471  324.457
 3469.00    0.49720   0.49908  323.942
 3470.00    0.51275   0.50237   -1.000
 3471.00    0.50671   0.48958   -1.000
 3472.00    0.49359   0.46791   -1.000
 3473.00    0.47408   0.43790   -1.000
 3474.00    0.45577   0.41287   -1.000
 3475.00    0.44192   0.39903   39.525
 3476.00    0.43481   0.40723   39.768
 3477.00    0.44352   0.43098   38.946
 3478.00    0.46333   0.45701  283.438
 3479.00    0.48601   0.47488   -1.000
 3480.00    0.49751   0.48424   -1.000
 3481.00    0.49223   0.48137   -1.000
 3482.00    0.49979   0.47106   -1.000
 3483.00    0.49629   0.46176   -1.000
 3484.00    0.48149   0.46237   -1.000
 3485.00    0.49863   0.47736   -1.000
 3486.00    0.52082   0.49275   -1.000
 3487.00    0.52117   0.49558   -1.000
 3488.00    0.52158   0.47711   -1.000
 3489.00    0.49637   0.44954   -1.000
 3490.00    0.46455   0.42926   -1.000
 3491.00    0.45781   0.42987   -1.000
 3492.00    0.45743   0.44398   -1.000
 3493.00    0.47284   0.45564   -1.000
 3494.00    0.47507   0.45948   -1.000
 3495.00    0.47486   0.44990   -1.000
 3496.00    0.46738   0.44087   -1.000
 3497.00    0.45967   0.44547   -1.000
 3498.00    0.47399   0.46562  324.457
 3499.00    0.50555   0.48958   -1.000
 3500.00    0.53034   0.49748   -1.000
 3501.00    0.53842   0.50253   -1.000
 3502.00    0.54331   0.51211   -1.000
 3503.00    0.55362   0.51730   -1.000
 3504.00    0.54595   0.51371   -1.000
 3505.00    0.54397   0.50077   -1.000
 3506.00    0.53731   0.49025   -1.000
 3507.00    0.52721   0.48741   -1.000
 3508.00    0.52954   0.48303   -1.000
 3509.00    0.53217   0.47583   -1.000
 3510.00    0.51997   0.46782   -1.000
 3511.00    0.50321   0.45747   -1.000
 3512.00    0.49411   0.44541   -1.000
 3513.00    0.48598   0.43394   -1.000
 3514.00    0.46828   0.43397   -1.000
 3515.00    0.48093   0.45633   -1.000
 3516.00    0.51699   0.49402   -1.000
 3517.00    0.53872   0.52149   -1.000
 3518.00    0.53924   0.52655   -1.000
 3519.00    0.54024   0.50542   -1.000
 3520.00    0.51294   0.47889   -1.000
 3521.00    0.49398   0.45368   -1.000
 3522.00    0.48390   0.43744   -1.000
 3523.00    0.47404   0.42007   -1.000
 3524.00    0.44490   0.40314   39.202
 3525.00    0.43175   0.39897   39.361
 3526.00    0.43909   0.41597   39.141
 3527.00    0.45828   0.44537   -1.000
 3528.00    0.48852   0.47886   -1.000
 3529.00    0.50379   0.49933  321.258
 3530.00    0.51616   0.50498   -1.000
 3531.00    0.51931   0.49956   -1.000
 3532.00    0.50709   0.49478   -1.000
 3533.00    0.50785   0.49091   -1.000
 3534.00    0.51762   0.49439   -1.000
 3535.00    0.53421   0.50132   -1.000
 3536.00    0.53803   0.51117   -1.000
 3537.00    0.53610   0.52551  305.889
 3538.00    0.53205   0.53756  302.644
 3539.00    0.53389   0.54087  298.758
 3540.00    0.54848   0.53450   -1.000
 3541.00    0.52855   0.52404  306.937
 3542.00    0.52807   0.52476  309.639
 3543.00    0.52729   0.53691   -1.000
 3544.00    0.53393   0.54550   -1.000
 3545.00    0.53589   0.54501   -1.000
 3546.00    0.53159   0.53560  307.628
 3547.00    0.52508   0.52826  314.695
 3548.00    0.52817   0.52780  316.045
 3549.00    0.52540   0.53137  315.403
 3550.00    0.52763   0.53367  313.188
 3551.00    0.52126   0.52860  317.388
 3552.00    0.50225   0.51401   -1.000
 3553.00    0.49102   0.49690  324.457
 3554.00    0.48069   0.49167   -1.000
 3555.00    0.47695   0.49819   -1.000
 3556.00    0.49246   0.50566   -1.000
 3557.00    0.49417   0.51070   -1.000
 3558.00    0.49132   0.50951   -1.000
 3559.00    0.48625   0.51045   -1.000
 3560.00    0.48741   0.51838   -1.000
 3561.00    0.48930   0.52758   -1.000
 3562.00    0.49525   0.52830   -1.000
 3563.00    0.50239   0.50735  324.457
 3564.00    0.48212   0.47266   -1.000
 3565.00    0.44700   0.43878   39.604
 3566.00    0.42071   0.42985   39.942
 3567.00    0.42054   0.43296   39.528
 3568.00    0.43579   0.43013   39.303
 3569.00    0.43121   0.42024   40.614
 3570.00    0.41462   0.40936   41.377
 3571.00    0.41726   0.41257   40.123
 3572.00    0.43192   0.42923   38.336
 3573.00    0.44780   0.44239  285.167
 3574.00    0.45738   0.45372  324.457
 3575.00    0.46038   0.46135  324.457
 3576.00    0.46450   0.46240  324.457
 3577.00    0.46725   0.45505   -1.000
 3578.00    0.45269   0.44031   -1.000
 3579.00    0.42577   0.41572   40.946
 3580.00    0.40724   0.39470   42.774
 3581.00    0.37982   0.38287   45.147
 3582.00    0.37515   0.38451   45.489
 3583.00    0.37776   0.38929   45.679
 3584.00    0.38059   0.38725   46.815
 3585.00    0.36933   0.37606   48.356
 3586.00    0.36780   0.36750   49.059
 3587.00    0.37219   0.37340   46.642
 3588.00    0.38804   0.39470   44.155
 3589.00    0.40421   0.42887   42.017
 3590.00    0.42339   0.46094   38.285
 3591.00    0.45766   0.48260   -1.000
 3592.00    0.47982   0.48508  324.457
 3593.00    0.48336   0.48533  324.457
 3594.00    0.48779   0.49382  324.457
 3595.00    0.50123   0.51404   -1.000
 3596.00    0.52153   0.53557   -1.000
 3597.00    0.53995   0.54594  298.003
 3598.00    0.55599   0.55439  290.172
 3599.00    0.56850   0.56129  285.357
 3600.00    0.56621   0.55597  288.639
 3601.00    0.55107   0.53365   -1.000
 3602.00    0.53105   0.50668   -1.000
 3603.00    0.50679   0.48398   -1.000
 3604.00    0.49559   0.47621   -1.000
 3605.00    0.49059   0.47561   -1.000
 3606.00    0.47939   0.47151  324.457
 3607.00    0.48613   0.45901   -1.000
 3608.00    0.46893   0.44467   -1.000
 3609.00    0.44564   0.44162  324.457
 3610.00    0.44747   0.45264  324.457
 3611.00    0.47939   0.47398  324.457
 3612.00    0.49293   0.48926  324.457
 3613.00    0.49750   0.50338  324.457
 3614.00    0.51209   0.51957  321.814
 3615.00    0.52189   0.53146   -1.000
 3616.00    0.52711   0.52025  310.613
 3617.00    0.50261   0.48641   -1.000
 3618.00    0.46201   0.44706   -1.000
 3619.00    0.44279   0.44126   39.034
 3620.00    0.44723   0.46326   -1.000
 3621.00    0.49513   0.49988  324.457
 3622.00    0.52962   0.52702  306.142
 3623.00    0.54491   0.54431  298.617
 3624.00    0.55366   0.56247   -1.000
 3625.00    0.57174   0.59086   -1.000
 3626.00    0.59223   0.61958   -1.000
 3627.00    0.60959   0.63341   -1.000
 3628.00    0.60744   0.61531  272.756
 3629.00    0.57395   0.56665  289.373
 3630.00    0.52697   0.50424   -1.000
 3631.00    0.48273   0.47191   -1.000
 3632.00    0.46422   0.46962  324.457
 3633.00    0.47917   0.49247   -1.000
 3634.00    0.49807   0.51328   -1.000
 3635.00    0.50877   0.52681   -1.000
 3636.00    0.52278   0.53677   -1.000
 3637.00    0.54772   0.55710   -1.000
 3638.00    0.56880   0.58165   -1.000
 3639.00    0.58727   0.59891   -1.000
 3640.00    0.60009   0.60407  274.649
 3641.00    0.58917   0.59196  281.467
 3642.00    0.57427   0.56928  290.957
 3643.00    0.54503   0.54733  306.733
 3644.00    0.53317   0.52824  315.853
 3645.00    0.52626   0.51306   -1.000
 3646.00    0.50948   0.49831   -1.000
 3647.00    0.49630   0.48539   -1.000
 3648.00    0.48750   0.48603  324.457
 3649.00    0.49754   0.49863  323.696
 3650.00    0.52294   0.52440  310.656
 3651.00    0.54077   0.55363   -1.000
 3652.00    0.56870   0.58405   -1.000
 3653.00    0.59273   0.59965  276.113
 3654.00    0.60339   0.61208   -1.000
 3655.00    0.60811   0.62400   -1.000
 3656.00    0.61269   0.63801   -1.000
 3657.00    0.63101   0.65163   -1.000
 3658.00    0.63267   0.65685   -1.000
 3659.00    0.63827   0.65807   -1.000
 3660.00    0.63281   0.65291   -1.000
 3661.00    0.63177   0.64032   -1.000
 3662.00    0.62607   0.62349  266.741
 3663.00    0.60285   0.61332   -1.000
 3664.00    0.60342   0.61163   -1.000
 3665.00    0.61158   0.61644  270.160
 3666.00    0.61225   0.61690  270.283
 3667.00    0.61012   0.60868  275.943
 3668.00    0.59759   0.59357  279.014
 3669.00    0.57654   0.58235  285.908
 3670.00    0.57507   0.59070   -1.000
 3671.00    0.60552   0.60968  273.596
 3672.00    0.62275   0.62575  268.024
 3673.00    0.62054   0.63301   -1.000
 3674.00    0.62654   0.62963  266.943
 3675.00    0.62438   0.61756  267.549
 3676.00    0.61532   0.59543   -1.000
 3677.00    0.59565   0.56822   -1.000
 3678.00    0.56955   0.54387   -1.000
 3679.00    0.55350   0.53312   -1.000
 3680.00    0.55111   0.53910   -1.000
 3681.00    0.56305   0.55521  292.015
 3682.00    0.57555   0.57107  283.563
 3683.00    0.58020   0.57822  280.850
 3684.00    0.58202   0.56916   -1.000
 3685.00    0.56703   0.54692   -1.000
 3686.00    0.54560   0.52241   -1.000
 3687.00    0.53210   0.51971   -1.000
 3688.00    0.53760   0.53930  308.691
 3689.00    0.56330   0.57798   -1.000
 3690.00    0.59945   0.61387   -1.000
 3691.00    0.62971   0.63464  260.926
 3692.00    0.64071   0.62829  262.779
 3693.00    0.62722   0.61178   -1.000
 3694.00    0.61666   0.60290   -1.000
 3695.00    0.61238   0.60208  272.660
 3696.00    0.60410   0.60828  270.241
 3697.00    0.61791   0.62094  266.942
 3698.00    0.63878   0.64338  258.222
 3699.00    0.65658   0.66141  251.640
 3700.00    0.66999   0.67019  248.236
 3701.00    0.66859   0.65446  252.893
 3702.00    0.64316   0.61302   -1.000
 3703.00    0.59430   0.55548   -1.000
 3704.00    0.55170   0.50930   -1.000
 3705.00    0.52265   0.48119   -1.000
 3706.00    0.51061   0.48155   -1.000
 3707.00    0.52045   0.49052   -1.000
 3708.00    0.52620   0.50349   -1.000
 3709.00    0.53276   0.52088   -1.000
 3710.00    0.55850   0.54504   -1.000
 3711.00    0.58893   0.57162   -1.000
 3712.00    0.62281   0.60453   -1.000
 3713.00    0.65861   0.63506   -1.000
 3714.00    0.68216   0.65142   -1.000
 3715.00    0.68631   0.64973   -1.000
 3716.00    0.66694   0.63233   -1.000
 3717.00    0.64428   0.59527   -1.000
 3718.00    0.59755   0.54275   -1.000
 3719.00    0.53231   0.48196   -1.000
 3720.00    0.47483   0.42700   -1.000
 3721.00    0.44590   0.41344   39.861
 3722.00    0.45723   0.44002   -1.000
 3723.00    0.51355   0.49293   -1.000
 3724.00    0.57082   0.54938   -1.000
 3725.00    0.60648   0.58195   -1.000
 3726.00    0.61516   0.58131   -1.000
 3727.00    0.59889   0.57109   -1.000
 3728.00    0.58389   0.57382   -1.000
 3729.00    0.59579   0.57860   -1.000
 3730.00    0.60008   0.57125   -1.000
 3731.00    0.57080   0.53590   -1.000
 3732.00    0.53108   0.47262   -1.000
 3733.00    0.47629   0.41608   39.125
 3734.00    0.42758   0.37437   42.328
 3735.00    0.39954   0.36628   44.014
 3736.00    0.40377   0.39125   41.903
 3737.00    0.43445   0.44188   37.993
 3738.00    0.49227   0.49860  261.879
 3739.00    0.54109   0.55648   -1.000
 3740.00    0.58863   0.58767  284.231
 3741.00    0.60161   0.58834   -1.000
 3742.00    0.58410   0.55998   -1.000
 3743.00    0.55568   0.52565   -1.000
 3744.00    0.52744   0.49157   -1.000
 3745.00    0.49715   0.47209   -1.000
 3746.00    0.47194   0.45322   -1.000
 3747.00    0.45495   0.42828   39.694
 3748.00    0.42707   0.40665   40.851
 3749.00    0.41610   0.39965   41.350
 3750.00    0.43835   0.42400   -1.000
 3751.00    0.48883   0.47692   -1.000
 3752.00    0.55286   0.53507   -1.000
 3753.00    0.59949   0.59002  272.016
 3754.00    0.63693   0.62940  257.579
 3755.00    0.66502   0.63320   -1.000
 3756.00    0.64819   0.60356   -1.000
 3757.00    0.59447   0.55579   -1.000
 3758.00    0.53610   0.52064   -1.000
 3759.00    0.52053   0.51879  324.457
 3760.00    0.54026   0.53375  314.158
 3761.00    0.56557   0.55254   -1.000
 3762.00    0.57878   0.55686   -1.000
 3763.00    0.57750   0.55479   -1.000
 3764.00    0.57854   0.55202   -1.000
 3765.00    0.57697   0.54533   -1.000
 3766.00    0.57123   0.53594   -1.000
 3767.00    0.56274   0.52972   -1.000
 3768.00    0.56026   0.52479   -1.000
 3769.00    0.56772   0.52079   -1.000
 3770.00    0.57105   0.52541   -1.000
 3771.00    0.57830   0.54635   -1.000
 3772.00    0.60851   0.57694   -1.000
 3773.00    0.63455   0.60747   -1.000
 3774.00    0.64400   0.62140   -1.000
 3775.00    0.64653   0.62532   -1.000
 3776.00    0.64664   0.62985   -1.000
 3777.00    0.65545   0.64076   -1.000
 3778.00    0.66853   0.65958  257.509
 3779.00    0.67905   0.67907  248.882
 3780.00    0.69776   0.69535  243.041
 3781.00    0.70840   0.70248  241.348
 3782.00    0.70874   0.70365  239.879
 3783.00    0.71717   0.69904   -1.000
 3784.00    0.71464   0.68151   -1.000
 3785.00    0.68728   0.64958   -1.000
 3786.00    0.64683   0.61455   -1.000
 3787.00    0.60377   0.58361   -1.000
 3788.00    0.58839   0.56724   -1.000
 3789.00    0.58072   0.57078   -1.000
 3790.00    0.58032   0.58347  292.185
 3791.00    0.59024   0.59121  289.158
 3792.00    0.59293   0.58572  293.531
 3793.00    0.57411   0.56126   -1.000
 3794.00    0.54531   0.53370   -1.000
 3795.00    0.52942   0.50537   -1.000
 3796.00    0.51154   0.47688   -1.000
 3797.00    0.48425   0.44974   -1.000
 3798.00    0.47061   0.44023   -1.000
 3799.00    0.49313   0.46599   -1.000
 3800.00    0.52941   0.52423  312.563
 3801.00    0.57170   0.58029  287.415
 3802.00    0.60078   0.62536   -1.000
 3803.00    0.62626   0.64587   -1.000
 3804.00    0.64551   0.64884  266.931
 3805.00    0.62966   0.63610  270.983
 3806.00    0.60540   0.62229   -1.000
 3807.00    0.59760   0.62016   -1.000
 3808.00    0.60895   0.63716   -1.000
 3809.00    0.63243   0.65892   -1.000
 3810.00    0.64557   0.66978   -1.000
 3811.00    0.64413   0.65680  270.647
 3812.00    0.62491   0.62103  285.253
 3813.00    0.59686   0.58327   -1.000
 3814.00    0.55613   0.55148  321.220
 3815.00    0.52950   0.54280   -1.000
 3816.00    0.52973   0.55206   -1.000
 3817.00    0.54775   0.56411   -1.000
 3818.00    0.55306   0.55634  322.952
 3819.00    0.52255   0.53151  324.457
 3820.00    0.49361   0.51443   -1.000
 3821.00    0.49327   0.51610   -1.000
 3822.00    0.51133   0.53204   -1.000
 3823.00    0.51936   0.52922  324.457
 3824.00    0.49196   0.50367  324.457
 3825.00    0.45786   0.48170   41.065
 3826.00    0.44963   0.47017   40.550
 3827.00    0.44520   0.46998   40.218
 3828.00    0.44995   0.47527   39.569
 3829.00    0.45271   0.47866   38.918
 3830.00    0.45602   0.47292   39.390
 3831.00    0.44601   0.45537   41.180
 3832.00    0.42048   0.42701   44.483
 3833.00    0.39764   0.39776   45.878
 3834.00    0.39404   0.38209   44.999
 3835.00    0.40741   0.38322   43.180
 3836.00    0.41766   0.39562   42.225
 3837.00    0.41402   0.40764   43.108
 3838.00    0.40745   0.41914   44.155
 3839.00    0.40799   0.43496   43.390
 3840.00    0.43318   0.46153   40.920
 3841.00    0.46817   0.50228   -1.000
 3842.00    0.51902   0.54413   -1.000
 3843.00    0.55114   0.58270   -1.000
 3844.00    0.56708   0.60304   -1.000
 3845.00    0.57034   0.61175   -1.000
 3846.00    0.56894   0.61779   -1.000
 3847.00    0.57406   0.62008   -1.000
 3848.00    0.57294   0.61353   -1.000
 3849.00    0.54911   0.60136   -1.000
 3850.00    0.54012   0.59678   -1.000
 3851.00    0.54858   0.60868   -1.000
 3852.00    0.56529   0.62204   -1.000
 3853.00    0.56593   0.62649   -1.000
 3854.00    0.55985   0.61493   -1.000
 3855.00    0.54138   0.59768   -1.000
 3856.00    0.53358   0.58087   -1.000
 3857.00    0.52519   0.56209   -1.000
 3858.00    0.50181   0.54250   38.901
 3859.00    0.47059   0.53740   39.944
 3860.00    0.47335   0.55130   39.103
 3861.00    0.50802   0.58525   -1.000
 3862.00    0.55313   0.61703   -1.000
 3863.00    0.59280   0.63271   -1.000
 3864.00    0.59772   0.62853   -1.000
 3865.00    0.58916   0.61996   -1.000
 3866.00    0.57801   0.61773   -1.000
 3867.00    0.57048   0.61871   -1.000
 3868.00    0.55457   0.61748   -1.000
 3869.00    0.53116   0.60644   -1.000
 3870.00    0.51391   0.58513   -1.000
 3871.00    0.49650   0.56963   39.411
 3872.00    0.50249   0.56633   -1.000
 3873.00    0.53847   0.58327   -1.000
 3874.00    0.58634   0.60788   -1.000
 3875.00    0.61014   0.62455   -1.000
 3876.00    0.60383   0.61064  302.363
 3877.00    0.57101   0.58245  324.457
 3878.00    0.52940   0.56487   -1.000
 3879.00    0.51920   0.56187   -1.000
 3880.00    0.52009   0.57062   -1.000
 3881.00    0.50569   0.57573   -1.000
 3882.00    0.50253   0.57687   -1.000
 3883.00    0.53612   0.58137   -1.000
 3884.00    0.57902   0.57300  302.205
 3885.00    0.57706   0.53930   -1.000
 3886.00    0.54711   0.49779   -1.000
 3887.00    0.52867   0.46448   -1.000
 3888.00    0.52940   0.45992   -1.000
 3889.00    0.54656   0.48764   -1.000
 3890.00    0.58704   0.53869   -1.000
 3891.00    0.64167   0.59339   -1.000
 3892.00    0.68218   0.63320   -1.000
 3893.00    0.69366   0.64178   -1.000
 3894.00    0.68209   0.63713   -1.000
 3895.00    0.67973   0.63871   -1.000
 3896.00    0.69358   0.64668   -1.000
 3897.00    0.70845   0.65708   -1.000
 3898.00    0.71089   0.65859   -1.000
 3899.00    0.70387   0.65480   -1.000
 3900.00    0.70523   0.66051   -1.000
 3901.00    0.71161   0.66759   -1.000
 3902.00    0.71145   0.66565   -1.000
 3903.00    0.70298   0.65459   -1.000
 3904.00    0.68465   0.63882   -1.000
 3905.00    0.65540   0.63611   -1.000
 3906.00    0.65555   0.64914  274.570
 3907.00    0.68851   0.68118  258.550
 3908.00    0.73422   0.71697   -1.000
 3909.00    0.76982   0.74456   -1.000
 3910.00    0.78390   0.75684   -1.000
 3911.00    0.79272   0.76300   -1.000
 3912.00    0.80048   0.76477   -1.000
 3913.00    0.78510   0.75986   -1.000
 3914.00    0.76271   0.74785   -1.000
 3915.00    0.75708   0.73660   -1.000
 3916.00    0.75511   0.72607   -1.000
 3917.00    0.74179   0.71259   -1.000
 3918.00    0.72846   0.69122   -1.000
 3919.00    0.69902   0.66539   -1.000
 3920.00    0.65988   0.64582   -1.000
 3921.00    0.64763   0.63471   -1.000
 3922.00    0.65096   0.64002   -1.000
 3923.00    0.66270   0.65065   -1.000
 3924.00    0.67140   0.65267   -1.000
 3925.00    0.65691   0.63947   -1.000
 3926.00    0.61517   0.60571   -1.000
 3927.00    0.55431   0.56320  324.457
 3928.00    0.50012   0.51322   43.498
 3929.00    0.44453   0.46438   49.021
 3930.00    0.39192   0.41088   57.351
 3931.00    0.33403   0.34684   67.863
 3932.00    0.27827   0.28786   79.408
 3933.00    0.24619   0.25170   86.901
 3934.00    0.24319   0.26051   83.517
 3935.00    0.27684   0.31011   72.609
 3936.00    0.33001   0.38107   60.084
 3937.00    0.39582   0.45103   49.339
 3938.00    0.45649   0.52044   41.454
 3939.00    0.51888   0.56943   -1.000
 3940.00    0.56319   0.60249   -1.000
 3941.00    0.58567   0.61676   -1.000
 3942.00    0.58888   0.61740   -1.000
 3943.00    0.57449   0.61550   -1.000
 3944.00    0.57771   0.62949   -1.000
 3945.00    0.62808   0.65605   -1.000
 3946.00    0.68069   0.68219  262.245
 3947.00    0.70907   0.69837   -1.000
 3948.00    0.71127   0.70558  257.321
 3949.00    0.72335   0.71652  247.939
 3950.00    0.75344   0.72893   -1.000
 3951.00    0.76412   0.72873   -1.000
 3952.00    0.75151   0.73004   -1.000
 3953.00    0.75583   0.73976   -1.000
 3954.00    0.77314   0.74529   -1.000
 3955.00    0.77412   0.73992   -1.000
 3956.00    0.74825   0.72517   -1.000
 3957.00    0.73303   0.71446   -1.000
 3958.00    0.73553   0.71324   -1.000
 3959.00    0.72891   0.69588   -1.000
 3960.00    0.67198   0.65000   -1.000
 3961.00    0.60048   0.60219  313.076
 3962.00    0.54576   0.55831   -1.000
 3963.00    0.51444   0.53160   -1.000
 3964.00    0.49003   0.50144   40.951
 3965.00    0.43949   0.44575   46.190
 3966.00    0.36623   0.37498   56.929
 3967.00    0.30364   0.30040   69.669
 3968.00    0.26262   0.25861   77.181
 3969.00    0.26177   0.26201   71.955
 3970.00    0.29937   0.31000   59.441
 3971.00    0.36230   0.37947   48.831
 3972.00    0.43569   0.45715   40.835
 3973.00    0.50360   0.52292   -1.000
 3974.00    0.56599   0.58425   -1.000
 3975.00    0.63058   0.63523  279.842
 3976.00    0.67799   0.67979  257.793
 3977.00    0.71924   0.72168  242.537
 3978.00    0.77041   0.75833  229.793
 3979.00    0.81229   0.78946   -1.000
 3980.00    0.83977   0.79916   -1.000
 3981.00    0.83498   0.79658   -1.000
 3982.00    0.82165   0.79045   -1.000
 3983.00    0.82899   0.79320   -1.000
 3984.00    0.84427   0.80765   -1.000
 3985.00    0.85865   0.82562   -1.000
 3986.00    0.88019   0.84409   -1.000
 3987.00    0.88686   0.86202   -1.000
 3988.00    0.90549   0.87167   -1.000
 3989.00    0.91252   0.87161   -1.000
 3990.00    0.89876   0.87312   -1.000
 3991.00    0.91282   0.88249   -1.000
 3992.00    0.94426   0.89684   -1.000
 3993.00    0.94525   0.90419   -1.000
 3994.00    0.92552   0.89639   -1.000
 3995.00    0.90570   0.87704   -1.000
 3996.00    0.88419   0.85550   -1.000
 3997.00    0.87124   0.85196   -1.000
 3998.00    0.88001   0.86776  203.229
 3999.00    0.92218   0.89718   -1.000
 4000.00    0.95942   0.92218   -1.000
 4001.00    0.97891   0.93922   -1.000
 4002.00    0.98543   0.94035   -1.000
 4003.00    0.97958   0.91953   -1.000
 4004.00    0.93631   0.87726   -1.000
 4005.00    0.87360   0.84658   -1.000
 4006.00    0.86940   0.85038   -1.000
 4007.00    0.91461   0.88429   -1.000
 4008.00    0.95531   0.92500   -1.000
 4009.00    0.97985   0.94492   -1.000
 4010.00    0.98965   0.95360   -1.000
 4011.00    0.98493   0.95739   -1.000
 4012.00    0.98243   0.95956   -1.000
 4013.00    0.98810   0.96332   -1.000
 4014.00    0.99851   0.97003   -1.000
 4015.00    1.00571   0.97428   -1.000
 4016.00    1.00734   0.97266   -1.000
 4017.00    0.99573   0.97342   -1.000
 4018.00    1.00000   0.98176   -1.000
 4019.00    1.01922   0.99092   -1.000
 4020.00    1.02228   0.99515   -1.000
 4021.00    1.01780   0.98777   -1.000
 4022.00    1.01364   0.97753   -1.000
 4023.00    1.00402   0.96788   -1.000
 4024.00    0.99275   0.96223   -1.000
 4025.00    1.00275   0.96811   -1.000
 4026.00    1.03434   0.98971   -1.000
 4027.00    1.06032   1.01086   -1.000
 4028.00    1.06185   1.00570   -1.000
 4029.00    1.02202   0.96496   -1.000
 4030.00    0.96293   0.90415   -1.000
 4031.00    0.91438   0.86115   -1.000
 4032.00    0.89750   0.84051   -1.000
 4033.00    0.89721   0.84640   -1.000
 4034.00    0.91398   0.87629   -1.000
 4035.00    0.95892   0.92786   -1.000
 4036.00    1.02027   0.98265   -1.000
 4037.00    1.06195   1.02864   -1.000
 4038.00    1.08045   1.03983   -1.000
 4039.00    1.07037   1.02742   -1.000
 4040.00    1.03773   1.00903   -1.000
 4041.00    1.02102   0.99880   -1.000
 4042.00    1.03184   0.97720   -1.000
 4043.00    0.99583   0.92400   -1.000
 4044.00    0.90597   0.85116   -1.000
 4045.00    0.82560   0.80047   -1.000
 4046.00    0.83018   0.81720  214.235
 4047.00    0.91195   0.88705   -1.000
 4048.00    0.99710   0.95513   -1.000
 4049.00    1.04178   1.00486   -1.000
 4050.00    1.06393   1.02091   -1.000
 4051.00    1.05646   1.01953   -1.000
 4052.00    1.02640   1.00378   -1.000
 4053.00    1.00028   0.98325  184.969
 4054.00    0.98492   0.96476   -1.000
 4055.00    0.97409   0.95120   -1.000
 4056.00    0.95832   0.93846   -1.000
 4057.00    0.94856   0.93036   -1.000
 4058.00    0.95236   0.94186  190.403
 4059.00    0.97387   0.96606  183.480
 4060.00    1.01417   0.97470   -1.000
 4061.00    1.01037   0.94561   -1.000
 4062.00    0.94889   0.88622   -1.000
 4063.00    0.87619   0.84857   -1.000
 4064.00    0.86796   0.84450   -1.000
 4065.00    0.91813   0.86770   -1.000
 4066.00    0.95792   0.90267   -1.000
 4067.00    0.97427   0.93125   -1.000
 4068.00    1.00228   0.94892   -1.000
 4069.00    1.02437   0.94834   -1.000
 4070.00    0.99557   0.91840   -1.000
 4071.00    0.95036   0.88449   -1.000
 4072.00    0.94402   0.88736   -1.000
 4073.00    0.97527   0.91328   -1.000
 4074.00    0.98950   0.93120   -1.000
 4075.00    0.95999   0.90870   -1.000
 4076.00    0.90405   0.86600   -1.000
 4077.00    0.86090   0.84832  216.363
 4078.00    0.87303   0.86765  209.290
 4079.00    0.92819   0.92349  194.884
 4080.00    0.99322   0.97713  181.420
 4081.00    1.03468   1.00728   -1.000
 4082.00    1.02407   0.99987   -1.000
 4083.00    0.99569   0.97594   -1.000
 4084.00    0.97675   0.96034  187.827
 4085.00    0.98091   0.96916  185.059
 4086.00    1.01237   1.00141  178.790
 4087.00    1.05603   1.03502   -1.000
 4088.00    1.09349   1.05873   -1.000
 4089.00    1.09308   1.05728   -1.000
 4090.00    1.07558   1.04094   -1.000
 4091.00    1.05148   1.02277   -1.000
 4092.00    1.04005   1.01349   -1.000
 4093.00    1.04261   1.00005   -1.000
 4094.00    1.03037   0.97677   -1.000
 4095.00    0.99734   0.94256   -1.000
 4096.00    0.94764   0.90920   -1.000
 4097.00    0.92782   0.88638   -1.000
 4098.00    0.92119   0.86055   -1.000
 4099.00    0.89005   0.81524   -1.000
 4100.00    0.82791   0.75575   -1.000
 4101.00    0.75739   0.71786   -1.000
 4102.00    0.75517   0.72754   -1.000
 4103.00    0.80892   0.78814   -1.000
 4104.00    0.87721   0.85862   -1.000
 4105.00    0.93850   0.91938   -1.000
 4106.00    0.97499   0.95194   -1.000
 4107.00    0.99350   0.96571   -1.000
 4108.00    0.98568   0.96471   -1.000
 4109.00    0.97464   0.95612   -1.000
 4110.00    0.96373   0.95101  193.004
 4111.00    0.96032   0.95721  190.623
 4112.00    0.97651   0.97313  186.295
 4113.00    1.00008   0.99524  183.087
 4114.00    1.02433   1.01711  180.269
 4115.00    1.04017   1.03036  178.503
 4116.00    1.04062   1.02414  179.378
 4117.00    1.02340   1.00392   -1.000
 4118.00    0.99738   0.98154  189.447
 4119.00    0.98198   0.96985  191.692
 4120.00    0.99070   0.97560  189.300
 4121.00    1.00187   0.98555  187.329
 4122.00    0.99607   0.99338  187.518
 4123.00    0.99313   1.00180  185.509
 4124.00    1.02075   1.01337  182.200
 4125.00    1.02924   1.02097  181.573
 4126.00    1.02268   1.01581  184.024
 4127.00    1.01088   1.00211  188.022
 4128.00    0.99294   0.99212  189.592
 4129.00    0.98470   0.98213  190.545
 4130.00    0.97343   0.96141  192.949
 4131.00    0.95536   0.93246   -1.000
 4132.00    0.92675   0.90842   -1.000
 4133.00    0.91694   0.91606  205.951
 4134.00    0.94243   0.95090  199.176
 4135.00    0.98951   0.99254  189.067
 4136.00    1.02968   1.02817  182.890
 4137.00    1.04826   1.05088  179.931
 4138.00    1.06415   1.06347  177.117
 4139.00    1.06892   1.06753  176.409
 4140.00    1.05794   1.04684  180.028
 4141.00    1.02532   0.99661   -1.000
 4142.00    0.95257   0.93473   -1.000
 4143.00    0.89472   0.90102  216.621
 4144.00    0.89717   0.91141   -1.000
 4145.00    0.95004   0.95476  196.138
 4146.00    1.00734   0.99808  188.792
 4147.00    1.02272   1.01029  186.812
 4148.00    1.01197   1.00401  190.371
 4149.00    0.99359   0.99450  195.739
 4150.00    0.97040   0.99161   -1.000
 4151.00    0.96466   0.99079   -1.000
 4152.00    0.96248   0.98545   -1.000
 4153.00    0.96302   0.97574  197.447
 4154.00    0.96221   0.96662  200.722
 4155.00    0.95108   0.96708   -1.000
 4156.00    0.95461   0.98105   -1.000
 4157.00    1.13574   1.00247   -1.000
 4158.00    1.09213   1.02880   -1.000
 4159.00    0.96318   1.05062   -1.000
 4160.00    0.95190   1.06373   -1.000
 4161.00    1.02319   1.07475   -1.000
 4162.00    1.05524   1.08284   -1.000
 4163.00    1.06044   1.08605   -1.000
 4164.00    1.05463   1.07787   -1.000
 4165.00    1.03275   1.05858   -1.000
 4166.00    1.01010   1.03523   -1.000
 4167.00    0.98314   1.02770   -1.000
 4168.00    0.98291   1.03120   -1.000
 4169.00    1.01214   1.03647   -1.000
 4170.00    1.01309   1.02193  191.958
 4171.00    0.97058   0.98250  203.477
 4172.00    0.90828   0.94829   -1.000
 4173.00    0.88151   0.93677   -1.000
 4174.00    0.90646   0.95287   -1.000
 4175.00    0.94240   0.97667   -1.000
 4176.00    0.95410   0.98757   -1.000
 4177.00    0.94671   0.99460   -1.000
 4178.00    0.94418   1.00588   -1.000
 4179.00    0.96021   1.01625   -1.000
 4180.00    0.96694   1.02049   -1.000
 4181.00    0.97808   1.01266   -1.000
 4182.00    0.98076   1.01415   -1.000
 4183.00    0.99890   1.03498   -1.000
 4184.00    1.03359   1.04998   -1.000
 4185.00    1.03978   1.04558  187.305
 4186.00    1.01873   1.01991  193.693
 4187.00    0.98160   0.99964   -1.000
 4188.00    0.97329   1.00452   -1.000
 4189.00    1.00160   1.02223   -1.000
 4190.00    1.00790   1.03849   -1.000
 4191.00    1.01047   1.04827   -1.000
 4192.00    1.03694   1.05896   -1.000
 4193.00    1.05957   1.06626  182.673
 4194.00    1.05204   1.05326  188.046
 4195.00    1.00813   1.01526  198.043
 4196.00    0.95885   0.97820   -1.000
 4197.00    0.93839   0.95100  208.201
 4198.00    0.93296   0.94087  208.643
 4199.00    0.94865   0.94007  206.341
 4200.00    0.97130   0.94765   -1.000
 4201.00    0.97111   0.95515   -1.000
 4202.00    0.96849   0.96697  201.158
 4203.00    0.98443   0.99189  197.964
 4204.00    1.00405   1.02618   -1.000
 4205.00    1.02253   1.05579   -1.000
 4206.00    1.03675   1.07728   -1.000
 4207.00    1.06015   1.09156   -1.000
 4208.00    1.08062   1.09205  183.307
 4209.00    1.07197   1.08547  184.086
 4210.00    1.07409   1.08295  183.691
 4211.00    1.08433   1.08929  182.381
 4212.00    1.08244   1.09250  183.458
 4213.00    1.06850   1.06747  189.537
 4214.00    1.01944   1.02639  198.300
 4215.00    0.98045   1.00617   -1.000
 4216.00    0.99606   1.02331   -1.000
 4217.00    1.06166   1.07513  184.179
 4218.00    1.12377   1.11915  176.023
 4219.00    1.15894   1.14627  171.136
 4220.00    1.17411   1.14733   -1.000
 4221.00    1.17171   1.12705   -1.000
 4222.00    1.14347   1.08161   -1.000
 4223.00    1.08398   1.00880   -1.000
 4224.00    0.99516   0.91088   -1.000
 4225.00    0.88779   0.83025   -1.000
 4226.00    0.79700   0.79168  257.296
 4227.00    0.80647   0.83302   -1.000
 4228.00    0.92739   0.93058  208.418
 4229.00    1.05308   1.03932  187.094
 4230.00    1.12118   1.09184   -1.000
 4231.00    1.14188   1.10145   -1.000
 4232.00    1.12237   1.08239   -1.000
 4233.00    1.08831   1.05466   -1.000
 4234.00    1.06737   1.03135   -1.000
 4235.00    1.05335   1.02461   -1.000
 4236.00    1.03807   1.02538  194.509
 4237.00    1.04069   1.03625  193.028
 4238.00    1.05307   1.05728  188.455
 4239.00    1.06239   1.08065   -1.000
 4240.00    1.08729   1.10520   -1.000
 4241.00    1.11786   1.13091  179.750
 4242.00    1.13818   1.15128  178.984
 4243.00    1.14660   1.17218   -1.000
 4244.00    1.16421   1.18659   -1.000
 4245.00    1.17089   1.17804  173.996
 4246.00    1.13820   1.14056  182.159
 4247.00    1.09720   1.09132  189.100
 4248.00    1.06938   1.04559   -1.000
 4249.00    1.04915   1.02370   -1.000
 4250.00    1.03672   1.02336  195.407
 4251.00    1.05141   1.04357  189.702
 4252.00    1.09053   1.05555   -1.000
 4253.00    1.09997   1.04882   -1.000
 4254.00    1.06861   1.03932   -1.000
 4255.00    1.06061   1.05592  188.077
 4256.00    1.10499   1.09522  180.615
 4257.00    1.13368   1.10724   -1.000
 4258.00    1.09858   1.07419   -1.000
 4259.00    1.04097   1.02722  196.609
 4260.00    1.00826   1.00808  201.742
 4261.00    1.01955   1.04442   -1.000
 4262.00    1.09025   1.11057   -1.000
 4263.00    1.16933   1.17451  173.230
 4264.00    1.20099   1.20382  169.217
 4265.00    1.21419   1.20568  168.840
 4266.00    1.21415   1.19051   -1.000
 4267.00    1.17550   1.15803  177.421
 4268.00    1.13538   1.10843   -1.000
 4269.00    1.10042   1.04845   -1.000
 4270.00    1.03008   0.98037   -1.000
 4271.00    0.95437   0.93693   -1.000
 4272.00    0.92716   0.92211  217.263
 4273.00    0.94966   0.93960  212.296
 4274.00    0.97734   0.97596  206.945
 4275.00    1.01780   1.02753  197.609
 4276.00    1.08594   1.08988  184.677
 4277.00    1.14387   1.14742  176.112
 4278.00    1.17190   1.16061  176.082
 4279.00    1.15684   1.14084  184.110
 4280.00    1.10853   1.10996  190.525
 4281.00    1.08793   1.10018  190.963
 4282.00    1.09732   1.10667  188.207
 4283.00    1.10824   1.10964  186.504
 4284.00    1.10468   1.10432  188.969
 4285.00    1.07568   1.09103   -1.000
 4286.00    1.05031   1.07479   -1.000
 4287.00    1.03546   1.04749  202.337
 4288.00    1.00599   1.00586  210.215
 4289.00    0.95707   0.96337  220.836
 4290.00    0.93484   0.95569   -1.000
 4291.00    0.97009   0.98975   -1.000
 4292.00    1.03567   1.03765  196.432
 4293.00    1.08197   1.05900   -1.000
 4294.00    1.07835   1.05596   -1.000
 4295.00    1.06027   1.04378   -1.000
 4296.00    1.04523   1.02204   -1.000
 4297.00    1.00947   0.97830   -1.000
 4298.00    0.94324   0.92254   -1.000
 4299.00    0.87581   0.87037  248.787
 4300.00    0.84650   0.85105  251.766
 4301.00    0.86537   0.85825  244.121
 4302.00    0.87959   0.87674  240.445
 4303.00    0.89702   0.89123  236.792
 4304.00    0.91489   0.89989   -1.000
 4305.00    0.91862   0.88940   -1.000
 4306.00    0.89523   0.85673   -1.000
 4307.00    0.85574   0.82269   -1.000
 4308.00    0.81857   0.81123  262.901
 4309.00    0.82910   0.83442  257.517
 4310.00    0.88980   0.88080   -1.000
 4311.00    0.94188   0.93676  227.477
 4312.00    0.98839   0.98585  216.011
 4313.00    1.01651   1.04093   -1.000
 4314.00    1.05891   1.11102   -1.000
 4315.00    1.13136   1.18969   -1.000
 4316.00    1.23242   1.27158   -1.000
 4317.00    1.29719   1.31175   -1.000
 4318.00    1.30770   1.31154  159.066
 4319.00    1.28316   1.28832  161.609
 4320.00    1.26364   1.25888  165.306
 4321.00    1.23212   1.21552  170.963
 4322.00    1.18557   1.15185   -1.000
 4323.00    1.11487   1.06336   -1.000
 4324.00    1.02983   0.98672   -1.000
 4325.00    0.95581   0.96547  218.732
 4326.00    0.97521   1.02099   -1.000
 4327.00    1.08043   1.12153   -1.000
 4328.00    1.19596   1.21927   -1.000
 4329.00    1.24644   1.25758  166.315
 4330.00    1.24740   1.26139   -1.000
 4331.00    1.23500   1.25962   -1.000
 4332.00    1.24445   1.27141   -1.000
 4333.00    1.25818   1.28540   -1.000
 4334.00    1.26893   1.28257   -1.000
 4335.00    1.26689   1.24758  164.052
 4336.00    1.21069   1.17198   -1.000
 4337.00    1.10543   1.06553   -1.000
 4338.00    1.00816   0.95553   -1.000
 4339.00    0.93313   0.89772   -1.000
 4340.00    0.88976   0.89620  232.556
 4341.00    0.92699   0.95512   -1.000
 4342.00    1.01959   1.04675   -1.000
 4343.00    1.10892   1.13173   -1.000
 4344.00    1.15592   1.18207   -1.000
 4345.00    1.19658   1.21894   -1.000
 4346.00    1.22608   1.24772   -1.000
 4347.00    1.24352   1.27719   -1.000
 4348.00    1.27145   1.29725   -1.000
 4349.00    1.28520   1.27845  164.545
 4350.00    1.23767   1.21533   -1.000
 4351.00    1.14372   1.15005  187.144
 4352.00    1.09609   1.12280   -1.000
 4353.00    1.14128   1.15421  181.564
 4354.00    1.20571   1.20850  173.292
 4355.00    1.24082   1.25483  168.009
 4356.00    1.27687   1.27591  164.545
 4357.00    1.30041   1.27822   -1.000
 4358.00    1.27475   1.26666  168.396
 4359.00    1.25285   1.26291  170.434
 4360.00    1.26161   1.28136   -1.000
 4361.00    1.29970   1.31039  161.857
 4362.00    1.33654   1.33683  160.142
 4363.00    1.34498   1.35254  159.517
 4364.00    1.34647   1.36271   -1.000
 4365.00    1.36241   1.35766  157.586
 4366.00    1.33626   1.32615  162.612
 4367.00    1.28027   1.28478  168.619
 4368.00    1.24860   1.26396   -1.000
 4369.00    1.25403   1.25966  168.622
 4370.00    1.26447   1.26084  167.596
 4371.00    1.26886   1.25164  167.469
 4372.00    1.26668   1.22425   -1.000
 4373.00    1.22498   1.18375   -1.000
 4374.00    1.17106   1.14590   -1.000
 4375.00    1.15403   1.14543  183.264
 4376.00    1.19247   1.18722  175.498
 4377.00    1.25631   1.24477  166.619
 4378.00    1.29974   1.27259   -1.000
 4379.00    1.30093   1.26314   -1.000
 4380.00    1.28010   1.21518   -1.000
 4381.00    1.23377   1.12813   -1.000
 4382.00    1.13164   1.02330   -1.000
 4383.00    0.99518   0.95412   -1.000
 4384.00    0.93883   0.95478   -1.000
 4385.00    1.01153   1.02748   -1.000
 4386.00    1.13259   1.11914  180.360
 4387.00    1.20497   1.16868   -1.000
 4388.00    1.22113   1.17982   -1.000
 4389.00    1.21166   1.17665   -1.000
 4390.00    1.19902   1.18025  177.483
 4391.00    1.21588   1.19495   -1.000
 4392.00    1.24743   1.21146   -1.000
 4393.00    1.25091   1.21687   -1.000
 4394.00    1.23017   1.21434  175.184
 4395.00    1.22919   1.23127  174.414
 4396.00    1.26894   1.27193  166.206
 4397.00    1.32623   1.29990   -1.000
 4398.00    1.33796   1.29188   -1.000
 4399.00    1.28335   1.25794   -1.000
 4400.00    1.23033   1.23332  175.141
 4401.00    1.22548   1.22115  172.901
 4402.00    1.25470   1.20252   -1.000
 4403.00    1.23671   1.15585   -1.000
 4404.00    1.15528   1.10394   -1.000
 4405.00    1.11430   1.09109   -1.000
 4406.00    1.15123   1.12176   -1.000
 4407.00    1.18343   1.16226   -1.000
 4408.00    1.18874   1.20440   -1.000
 4409.00    1.22438   1.25490   -1.000
 4410.00    1.29156   1.31889   -1.000
 4411.00    1.34000   1.36070   -1.000
 4412.00    1.36628   1.34887  155.599
 4413.00    1.34556   1.29611   -1.000
 4414.00    1.27256   1.23391   -1.000
 4415.00    1.19952   1.19264  175.449
 4416.00    1.19773   1.20907  174.259
 4417.00    1.24116   1.26816   -1.000
 4418.00    1.28765   1.33570   -1.000
 4419.00    1.33068   1.37100   -1.000
 4420.00    1.34209   1.36881   -1.000
 4421.00    1.30718   1.33570   -1.000
 4422.00    1.26740   1.30327   -1.000
 4423.00    1.24951   1.29337   -1.000
 4424.00    1.25670   1.30107   -1.000
 4425.00    1.26047   1.30713   -1.000
 4426.00    1.25909   1.30861   -1.000
 4427.00    1.25947   1.31542   -1.000
 4428.00    1.27766   1.32331   -1.000
 4429.00    1.27082   1.32371   -1.000
 4430.00    1.25814   1.31902   -1.000
 4431.00    1.25970   1.31840   -1.000
 4432.00    1.27224   1.31500   -1.000
 4433.00    1.25735   1.28482   -1.000
 4434.00    1.21131   1.24315   -1.000
 4435.00    1.18352   1.23150   -1.000
 4436.00    1.21872   1.27438   -1.000
 4437.00    1.29857   1.35393   -1.000
 4438.00    1.36881   1.40819   -1.000
 4439.00    1.38784   1.41669   -1.000
 4440.00    1.36954   1.37406  157.318
 4441.00    1.30586   1.31605  164.997
 4442.00    1.25074   1.27679   -1.000
 4443.00    1.24125   1.28927   -1.000
 4444.00    1.27957   1.34264   -1.000
 4445.00    1.34716   1.39636   -1.000
 4446.00    1.39680   1.42659   -1.000
 4447.00    1.39636   1.42951   -1.000
 4448.00    1.38675   1.42726   -1.000
 4449.00    1.38849   1.42510   -1.000
 4450.00    1.37168   1.41725   -1.000
 4451.00    1.36776   1.40332   -1.000
 4452.00    1.36849   1.37748  159.344
 4453.00    1.33238   1.33056  165.395
 4454.00    1.27284   1.27241  173.115
 4455.00    1.23088   1.24580   -1.000
 4456.00    1.23952   1.24958  173.419
 4457.00    1.26306   1.26764  170.324
 4458.00    1.26714   1.27304  170.517
 4459.00    1.26040   1.26454  171.424
 4460.00    1.24566   1.25817  173.255
 4461.00    1.23410   1.26646   -1.000
 4462.00    1.25221   1.29709   -1.000
 4463.00    1.30810   1.33946   -1.000
 4464.00    1.35279   1.37179   -1.000
 4465.00    1.36288   1.38157   -1.000
 4466.00    1.36456   1.37318  160.520
 4467.00    1.36033   1.35928  162.405
 4468.00    1.33349   1.34849   -1.000
 4469.00    1.31560   1.34663   -1.000
 4470.00    1.32934   1.36774   -1.000
 4471.00    1.35696   1.41077   -1.000
 4472.00    1.40458   1.45096   -1.000
 4473.00    1.45491   1.48059   -1.000
 4474.00    1.47809   1.49153  148.017
 4475.00    1.47719   1.50069   -1.000
 4476.00    1.49637   1.51509   -1.000
 4477.00    1.51935   1.52101  146.142
 4478.00    1.50768   1.49806  147.521
 4479.00    1.45763   1.44149  153.127
 4480.00    1.38277   1.38111  160.153
 4481.00    1.33096   1.35727   -1.000
 4482.00    1.33864   1.38288   -1.000
 4483.00    1.39231   1.44526   -1.000
 4484.00    1.46045   1.50419   -1.000
 4485.00    1.50333   1.54240   -1.000
 4486.00    1.51515   1.53948   -1.000
 4487.00    1.49639   1.50177  150.330
 4488.00    1.43787   1.44717  156.203
 4489.00    1.38472   1.41983   -1.000
 4490.00    1.37894   1.42702   -1.000
 4491.00    1.41158   1.45626   -1.000
 4492.00    1.44483   1.46943   -1.000
 4493.00    1.44148   1.44528  153.553
 4494.00    1.39618   1.41269   -1.000
 4495.00    1.35897   1.39896   -1.000
 4496.00    1.36748   1.42169   -1.000
 4497.00    1.40965   1.46187   -1.000
 4498.00    1.45383   1.49380   -1.000
 4499.00    1.47771   1.50458   -1.000
 4500.00    1.46170   1.49711   -1.000
 4501.00    1.43840   1.49820   -1.000
 4502.00    1.45462   1.52036   -1.000
 4503.00    1.52180   1.55915   -1.000
 4504.00    1.57668   1.59621   -1.000
 4505.00    1.58036   1.60802   -1.000
 4506.00    1.57517   1.59369   -1.000
 4507.00    1.56370   1.57445  144.852
 4508.00    1.54974   1.56789   -1.000
 4509.00    1.56158   1.57339  143.790
 4510.00    1.57523   1.57988  142.789
 4511.00    1.56243   1.57169  144.060
 4512.00    1.53467   1.54841  146.969
 4513.00    1.49953   1.52349   -1.000
 4514.00    1.47872   1.50767   -1.000
 4515.00    1.48437   1.50414   -1.000
 4516.00    1.49389   1.50624  149.600
 4517.00    1.48290   1.50463   -1.000
 4518.00    1.46960   1.50357   -1.000
 4519.00    1.48654   1.51577   -1.000
 4520.00    1.52802   1.53737  146.699
 4521.00    1.53833   1.54895  147.225
 4522.00    1.51328   1.53664   -1.000
 4523.00    1.47671   1.50733   -1.000
 4524.00    1.45507   1.47788   -1.000
 4525.00    1.43469   1.44694  157.775
 4526.00    1.37951   1.40465   -1.000
 4527.00    1.34330   1.35890   -1.000
 4528.00    1.31879   1.32883  169.219
 4529.00    1.31814   1.32721  167.915
 4530.00    1.33272   1.34854   -1.000
 4531.00    1.36226   1.37571  161.896
 4532.00    1.38553   1.38968  161.150
 4533.00    1.37706   1.38126  165.807
 4534.00    1.33639   1.36557   -1.000
 4535.00    1.32452   1.37329   -1.000
 4536.00    1.37578   1.41819   -1.000
 4537.00    1.47467   1.48502  149.847
 4538.00    1.53476   1.53466  145.910
 4539.00    1.53451   1.54206  147.439
 4540.00    1.49761   1.52283   -1.000
 4541.00    1.48097   1.50690   -1.000
 4542.00    1.49737   1.50962  149.708
 4543.00    1.50187   1.51801   -1.000
 4544.00    1.47239   1.51543   -1.000
 4545.00    1.51212   1.50106   -2.000
 4546.00    0.53206   1.48926   -2.000
 4547.00   -0.03897   1.48099   -2.000
 4548.00   -0.03361   1.46598    0.000
 4549.00    0.93793   1.45056   -1.000
 4550.00    0.56947   1.45344   -1.000
 4551.00    0.78109   1.47429   -1.000
 4552.00    1.51222   1.48272   -1.000
 4553.00    1.43718   1.46760   -1.000
 4554.00    1.42538   1.44998   -1.000
 4555.00    1.42754   1.45520   -1.000
 4556.00    1.47363   1.49307   -1.000
 4557.00    1.53162   1.54788   -1.000
 4558.00    1.56864   1.59115   -1.000
 4559.00    1.58359   1.61001   -1.000
 4560.00    1.58102   1.61450   -1.000
 4561.00    1.58221   1.60796   -1.000
 4562.00    1.57160   1.58838   -1.000
 4563.00    1.52693   1.55384   -1.000
 4564.00    1.47785   1.52224   -1.000
 4565.00    1.46459   1.51403   -1.000
 4566.00    1.50174   1.53848   -1.000
 4567.00    1.55723   1.57830   -1.000
 4568.00    1.58900   1.60705  142.857
 4569.00    1.58692   1.60339  144.485
 4570.00    1.54887   1.57602   -1.000
 4571.00    1.49558   1.54510   -1.000
 4572.00    1.49956   1.53868   -1.000
 4573.00    1.54862   1.56628   -1.000
 4574.00    1.57829   1.59895   -1.000
 4575.00    1.58035   1.61190   -1.000
 4576.00    1.57312   1.60592   -1.000
 4577.00    1.56318   1.59065   -1.000
 4578.00    1.54589   1.56271  148.423
 4579.00    1.50157   1.52374   -1.000
 4580.00    1.45727   1.49047   -1.000
 4581.00    1.45702   1.48192   -1.000
 4582.00    1.46916   1.49361   -1.000
 4583.00    1.48397   1.50765   -1.000
 4584.00    1.48978   1.51099   -1.000
 4585.00    1.48426   1.50745   -1.000
 4586.00    1.49330   1.51588   -1.000
 4587.00    1.52620   1.54434   -1.000
 4588.00    1.56652   1.57872  144.361
 4589.00    1.58820   1.59898  144.189
 4590.00    1.57469   1.59573   -1.000
 4591.00    1.53466   1.57309   -1.000
 4592.00    1.51502   1.54571   -1.000
 4593.00    1.50579   1.53007   -1.000
 4594.00    1.50784   1.52566   -1.000
 4595.00    1.50981   1.52767   -1.000
 4596.00    1.51652   1.53289  148.930
 4597.00    1.52560   1.54149  148.618
 4598.00    1.53189   1.54930  148.283
 4599.00    1.53432   1.55144  149.618
 4600.00    1.51898   1.54668   -1.000
 4601.00    1.50685   1.54109   -1.000
 4602.00    1.51674   1.54103   -1.000
 4603.00    1.53769   1.54444  148.050
 4604.00    1.54549   1.54791  148.325
 4605.00    1.54618   1.55352  148.071
 4606.00    1.56111   1.57043  146.437
 4607.00    1.59419   1.60429  143.515
 4608.00    1.63698   1.64425  140.432
 4609.00    1.66571   1.67375  138.797
 4610.00    1.66345   1.67278  139.452
 4611.00    1.63515   1.65085  141.401
 4612.00    1.61313   1.62939  142.968
 4613.00    1.60607   1.62092  143.886
 4614.00    1.61572   1.62728  143.150
 4615.00    1.62205   1.64069   -1.000
 4616.00    1.62541   1.65088   -1.000
 4617.00    1.62562   1.65503   -1.000
 4618.00    1.62061   1.65408   -1.000
 4619.00    1.60493   1.65142   -1.000
 4620.00    1.61897   1.65502   -1.000
 4621.00    1.64938   1.66615  139.516
 4622.00    1.65404   1.67365   -1.000
 4623.00    1.64256   1.67018   -1.000
 4624.00    1.63761   1.65993   -1.000
 4625.00    1.63606   1.65191  141.452
 4626.00    1.63765   1.64507  141.783
 4627.00    1.64290   1.64332  141.702
 4628.00    1.63770   1.64648  142.637
 4629.00    1.62497   1.65035   -1.000
 4630.00    1.63228   1.65721   -1.000
 4631.00    1.65653   1.66572  140.534
 4632.00    1.64822   1.66340  141.199
 4633.00    1.62426   1.64645   -1.000
 4634.00    1.61336   1.62818  144.873
 4635.00    1.60930   1.61928  144.714
 4636.00    1.59727   1.61063  145.910
 4637.00    1.58012   1.59380  147.867
 4638.00    1.55839   1.57550   -1.000
 4639.00    1.55749   1.56758  148.229
 4640.00    1.58843   1.57685  145.671
 4641.00    1.62388   1.59963  142.073
 4642.00    1.65049   1.61961   -1.000
 4643.00    1.65693   1.62065   -1.000
 4644.00    1.62732   1.59605   -1.000
 4645.00    1.58733   1.55864   -1.000
 4646.00    1.54141   1.51832  151.601
 4647.00    1.51321   1.49653  152.194
 4648.00    1.52114   1.51026  149.438
 4649.00    1.56510   1.54980  145.918
 4650.00    1.60581   1.59262  143.940
 4651.00    1.61563   1.62197  143.718
 4652.00    1.63001   1.63308  143.419
 4653.00    1.62172   1.62629  145.164
 4654.00    1.59532   1.60530  148.579
 4655.00    1.56050   1.58797   -1.000
 4656.00    1.55624   1.59252   -1.000
 4657.00    1.58531   1.62322   -1.000
 4658.00    1.65380   1.67507   -1.000
 4659.00    1.70787   1.72119  135.481
 4660.00    1.73207   1.73772  135.392
 4661.00    1.69834   1.71969   -1.000
 4662.00    1.65852   1.68291   -1.000
 4663.00    1.62776   1.64435  143.287
 4664.00    1.60833   1.61032  143.579
 4665.00    1.58533   1.57172  145.977
 4666.00    1.52689   1.52283  152.351
 4667.00    1.45492   1.47904   -1.000
 4668.00    1.43156   1.47086   -1.000
 4669.00    1.47440   1.50771   -1.000
 4670.00    1.56159   1.56728  147.316
 4671.00    1.61445   1.61426  143.365
 4672.00    1.63304   1.63401  142.565
 4673.00    1.63244   1.63268  142.694
 4674.00    1.63091   1.63442  142.540
 4675.00    1.64618   1.64657  140.652
 4676.00    1.67998   1.66114  138.522
 4677.00    1.69138   1.65810   -1.000
 4678.00    1.65498   1.63336  142.350
 4679.00    1.60757   1.60284  145.166
 4680.00    1.57915   1.57784  147.559
 4681.00    1.57530   1.56813  148.969
 4682.00    1.58818   1.57784  147.056
 4683.00    1.62148   1.60169  143.296
 4684.00    1.66331   1.62469   -1.000
 4685.00    1.66945   1.63402   -1.000
 4686.00    1.64939   1.63153  142.020
 4687.00    1.64299   1.62319  142.849
 4688.00    1.64754   1.61814   -1.000
 4689.00    1.64402   1.61716   -1.000
 4690.00    1.63668   1.61645  143.908
 4691.00    1.63420   1.61381  144.195
 4692.00    1.63821   1.61648  142.446
 4693.00    1.66227   1.62821   -1.000
 4694.00    1.69136   1.64497   -1.000
 4695.00    1.71722   1.66066   -1.000
 4696.00    1.72220   1.66537   -1.000
 4697.00    1.69108   1.64684   -1.000
 4698.00    1.63846   1.61207   -1.000
 4699.00    1.60022   1.58100  146.036
 4700.00    1.60412   1.56452   -1.000
 4701.00    1.59997   1.55471   -1.000
 4702.00    1.57701   1.54758   -1.000
 4703.00    1.56266   1.54971  149.300
 4704.00    1.58242   1.56959  146.399
 4705.00    1.61850   1.59045   -1.000
 4706.00    1.60824   1.59226  146.336
 4707.00    1.58751   1.57618  149.306
 4708.00    1.55976   1.56171  150.722
 4709.00    1.55297   1.56761  149.892
 4710.00    1.59288   1.59224  145.403
 4711.00    1.64969   1.61958   -1.000
 4712.00    1.67215   1.63224   -1.000
 4713.00    1.66555   1.62438   -1.000
 4714.00    1.64398   1.61157   -1.000
 4715.00    1.62804   1.61763  144.126
 4716.00    1.66133   1.64815  141.209
 4717.00    1.70197   1.68645  138.491
 4718.00    1.71695   1.71567  137.666
 4719.00    1.72433   1.73334  137.185
 4720.00    1.72602   1.74180  136.715
 4721.00    1.71644   1.73776   -1.000
 4722.00    1.70513   1.72769   -1.000
 4723.00    1.70642   1.72700   -1.000
 4724.00    1.71923   1.73598  136.533
 4725.00    1.72189   1.73275  136.772
 4726.00    1.67894   1.70363   -1.000
 4727.00    1.61393   1.65110   -1.000
 4728.00    1.57139   1.59925   -1.000
 4729.00    1.56884   1.57700  148.168
 4730.00    1.58479   1.58341  146.631
 4731.00    1.60612   1.60773  145.484
 4732.00    1.63013   1.63685  143.716
 4733.00    1.64976   1.65990  142.477
 4734.00    1.67380   1.66892  141.675
 4735.00    1.68384   1.66742  140.886
 4736.00    1.66316   1.66455  142.446
 4737.00    1.65495   1.66693  142.607
 4738.00    1.67993   1.68048  140.719
 4739.00    1.69434   1.69663  140.813
 4740.00    1.68330   1.70129  141.651
 4741.00    1.66832   1.69836   -1.000
 4742.00    1.67754   1.70175   -1.000
 4743.00    1.70343   1.71048  139.116
 4744.00    1.71352   1.71865  139.429
 4745.00    1.71185   1.72792  139.551
 4746.00    1.71402   1.74073   -1.000
 4747.00    1.72927   1.75747   -1.000
 4748.00    1.73730   1.76919   -1.000
 4749.00    1.73343   1.77410   -1.000
 4750.00    1.72947   1.77623   -1.000
 4751.00    1.72199   1.77107   -1.000
 4752.00    1.70877   1.75458   -1.000
 4753.00    1.68461   1.73088   -1.000
 4754.00    1.66397   1.71083   -1.000
 4755.00    1.65848   1.70365   -1.000
 4756.00    1.65522   1.70771   -1.000
 4757.00    1.65498   1.71706   -1.000
 4758.00    1.66451   1.73067   -1.000
 4759.00    1.68063   1.74222   -1.000
 4760.00    1.67732   1.74341   -1.000
 4761.00    1.65097   1.72564   -1.000
 4762.00    1.60387   1.69199   -1.000
 4763.00    1.58187   1.65845   -1.000
 4764.00    1.58023   1.63902   -1.000
 4765.00    1.57683   1.62768   -1.000
 4766.00    1.58717   1.62247   -1.000
 4767.00    1.61664   1.63754   -1.000
 4768.00    1.65385   1.67939   -1.000
 4769.00    1.69082   1.72507   -1.000
 4770.00    1.70935   1.74868   -1.000
 4771.00    1.69578   1.74204   -1.000
 4772.00    1.67514   1.72913   -1.000
 4773.00    1.68196   1.73813   -1.000
 4774.00    1.72156   1.76662   -1.000
 4775.00    1.74329   1.79527   -1.000
 4776.00    1.74653   1.80679   -1.000
 4777.00    1.74394   1.80833   -1.000
 4778.00    1.72880   1.80600   -1.000
 4779.00    1.71069   1.79608   -1.000
 4780.00    1.70094   1.78073   -1.000
 4781.00    1.69795   1.76566   -1.000
 4782.00    1.68749   1.74692   -1.000
 4783.00    1.67843   1.72504   -1.000
 4784.00    1.68239   1.71383   -1.000
 4785.00    1.67937   1.71430   -1.000
 4786.00    1.66162   1.71368   -1.000
 4787.00    1.65314   1.71039   -1.000
 4788.00    1.65661   1.71100   -1.000
 4789.00    1.66014   1.71494   -1.000
 4790.00    1.66458   1.72189   -1.000
 4791.00    1.68048   1.73977   -1.000
 4792.00    1.70339   1.77382   -1.000
 4793.00    1.73445   1.81546   -1.000
 4794.00    1.78218   1.85523   -1.000
 4795.00    1.80165   1.87736   -1.000
 4796.00    1.78182   1.87201   -1.000
 4797.00    1.75443   1.84239   -1.000
 4798.00    1.71262   1.80495   -1.000
 4799.00    1.68003   1.77695   -1.000
 4800.00    1.68728   1.77380   -1.000
 4801.00    1.72313   1.79730   -1.000
 4802.00    1.76291   1.83267   -1.000
 4803.00    1.77800   1.85387   -1.000
 4804.00    1.75709   1.84142   -1.000
 4805.00    1.72389   1.81135   -1.000
 4806.00    1.71153   1.78452   -1.000
 4807.00    1.70022   1.77083   -1.000
 4808.00    1.69980   1.77068   -1.000
 4809.00    1.71447   1.78302   -1.000
 4810.00    1.73541   1.80052   -1.000
 4811.00    1.74203   1.81547   -1.000
 4812.00    1.74279   1.82109   -1.000
 4813.00    1.75111   1.82342   -1.000
 4814.00    1.75283   1.82966   -1.000
 4815.00    1.76397   1.84036   -1.000
 4816.00    1.78245   1.85468   -1.000
 4817.00    1.79159   1.87006   -1.000
 4818.00    1.80378   1.88394   -1.000
 4819.00    1.80374   1.89294   -1.000
 4820.00    1.79924   1.89159   -1.000
 4821.00    1.79381   1.87307   -1.000
 4822.00    1.75512   1.83620   -1.000
 4823.00    1.71609   1.79072   -1.000
 4824.00    1.69115   1.76404   -1.000
 4825.00    1.72302   1.77530   -1.000
 4826.00    1.76495   1.80845   -1.000
 4827.00    1.77036   1.82489   -1.000
 4828.00    1.75190   1.81820   -1.000
 4829.00    1.74081   1.80595   -1.000
 4830.00    1.73346   1.79720   -1.000
 4831.00    1.72270   1.78503   -1.000
 4832.00    1.71086   1.77215   -1.000
 4833.00    1.72614   1.77608   -1.000
 4834.00    1.75691   1.79691   -1.000
 4835.00    1.76950   1.82240   -1.000
 4836.00    1.76457   1.83324   -1.000
 4837.00    1.75903   1.83032   -1.000
 4838.00    1.74157   1.81634   -1.000
 4839.00    1.71133   1.79314   -1.000
 4840.00    1.69385   1.77438   -1.000
 4841.00    1.70156   1.76919   -1.000
 4842.00    1.71156   1.77095   -1.000
 4843.00    1.71313   1.77403   -1.000
 4844.00    1.72905   1.78636   -1.000
 4845.00    1.76015   1.81263   -1.000
 4846.00    1.78088   1.83571   -1.000
 4847.00    1.76646   1.83330   -1.000
 4848.00    1.72493   1.80949   -1.000
 4849.00    1.71214   1.79464   -1.000
 4850.00    1.73817   1.80123   -1.000
 4851.00    1.75337   1.81392   -1.000
 4852.00    1.74535   1.81584   -1.000
 4853.00    1.72933   1.79424   -1.000
 4854.00    1.68596   1.74908   -1.000
 4855.00    1.62922   1.69758   -1.000
 4856.00    1.60891   1.67210   -1.000
 4857.00    1.62487   1.67049   -1.000
 4858.00    1.59809   1.65103   -1.000
 4859.00    1.50715   1.56497   -1.000
 4860.00    1.35582   1.41798   -1.000
 4861.00    1.25050   1.30926   -1.000
 4862.00    1.27530   1.30928   -1.000
 4863.00    1.39852   1.41862   -1.000
 4864.00    1.51017   1.54715   -1.000
 4865.00    1.57481   1.63857   -1.000
 4866.00    1.62132   1.69327   -1.000
 4867.00    1.64392   1.72671   -1.000
 4868.00    1.65382   1.74188   -1.000
 4869.00    1.65182   1.73263   -1.000
 4870.00    1.61527   1.69029   -1.000
 4871.00    1.55810   1.63021   -1.000
 4872.00    1.54006   1.59749   -1.000
 4873.00    1.58837   1.63035   -1.000
 4874.00    1.63183   1.69555   -1.000
 4875.00    1.64559   1.74248   -1.000
 4876.00    1.65873   1.76626   -1.000
 4877.00    1.67708   1.78246   -1.000
 4878.00    1.69836   1.80487   -1.000
 4879.00    1.72665   1.83085   -1.000
 4880.00    1.73258   1.84756   -1.000
 4881.00    1.70010   1.83775   -1.000
 4882.00    1.68601   1.81123   -1.000
 4883.00    1.69369   1.79758   -1.000
 4884.00    1.68225   1.78811   -1.000
 4885.00    1.64872   1.76357   -1.000
 4886.00    1.62851   1.73690   -1.000
 4887.00    1.63867   1.72902   -1.000
 4888.00    1.64953   1.72999   -1.000
 4889.00    1.63636   1.71412   -1.000
 4890.00    1.60216   1.67624   -1.000
 4891.00    1.58455   1.64794   -1.000
 4892.00    1.62970   1.67896   -1.000
 4893.00    1.73358   1.76918   -1.000
 4894.00    1.82084   1.87642   -1.000
 4895.00    1.85757   1.94645   -1.000
 4896.00    1.87323   1.97286   -1.000
 4897.00    1.87560   1.97244   -1.000
 4898.00    1.85854   1.95629   -1.000
 4899.00    1.81786   1.92836   -1.000
 4900.00    1.79088   1.90047   -1.000
 4901.00    1.79184   1.88453   -1.000
 4902.00    1.78882   1.87388   -1.000
 4903.00    1.76809   1.86144   -1.000
 4904.00    1.77454   1.86130   -1.000
 4905.00    1.81265   1.89118   -1.000
 4906.00    1.83859   1.93166   -1.000
 4907.00    1.83516   1.93603   -1.000
 4908.00    1.80248   1.89977   -1.000
 4909.00    1.75086   1.84749   -1.000
 4910.00    1.71546   1.80481   -1.000
 4911.00    1.71777   1.79521   -1.000
 4912.00    1.74706   1.82080   -1.000
 4913.00    1.78095   1.86307   -1.000
 4914.00    1.81573   1.89956   -1.000
 4915.00    1.84520   1.92490   -1.000
 4916.00    1.85622   1.92396   -1.000
 4917.00    1.80205   1.87205   -1.000
 4918.00    1.69765   1.76532   -1.000
 4919.00    1.60178   1.65227   -1.000
 4920.00    1.55621   1.58195   -1.000
 4921.00    1.58703   1.59423  152.678
 4922.00    1.66496   1.66483  147.114
 4923.00    1.71284   1.73620   -1.000
 4924.00    1.72069   1.77149   -1.000
 4925.00    1.73750   1.79533   -1.000
 4926.00    1.78149   1.83732   -1.000
 4927.00    1.82580   1.88956   -1.000
 4928.00    1.85216   1.93408   -1.000
 4929.00    1.87469   1.96823   -1.000
 4930.00    1.88496   1.98587   -1.000
 4931.00    1.88274   1.97421   -1.000
 4932.00    1.84716   1.93127   -1.000
 4933.00    1.77931   1.87449   -1.000
 4934.00    1.75059   1.83722   -1.000
 4935.00    1.77917   1.83875   -1.000
 4936.00    1.79308   1.84579   -1.000
 4937.00    1.75181   1.81688   -1.000
 4938.00    1.69253   1.76024   -1.000
 4939.00    1.68216   1.73377   -1.000
 4940.00    1.74116   1.77245   -1.000
 4941.00    1.81813   1.84994   -1.000
 4942.00    1.86077   1.92297   -1.000
 4943.00    1.88004   1.95964   -1.000
 4944.00    1.89194   1.96951   -1.000
 4945.00    1.87642   1.96299   -1.000
 4946.00    1.85321   1.95358   -1.000
 4947.00    1.86581   1.95677   -1.000
 4948.00    1.89728   1.97668   -1.000
 4949.00    1.90557   1.99774   -1.000
 4950.00    1.90817   2.00710   -1.000
 4951.00    1.91619   2.00794   -1.000
 4952.00    1.90392   1.99932   -1.000
 4953.00    1.87974   1.98395   -1.000
 4954.00    1.87181   1.95789   -1.000
 4955.00    1.84198   1.90268   -1.000
 4956.00    1.75699   1.80482   -1.000
 4957.00    1.66025   1.69654   -1.000
 4958.00    1.65871   1.66761  151.208
 4959.00    1.75737   1.74334  142.571
 4960.00    1.84939   1.85346  137.602
 4961.00    1.88360   1.93060   -1.000
 4962.00    1.87779   1.95049   -1.000
 4963.00    1.87179   1.94121   -1.000
 4964.00    1.85209   1.91369   -1.000
 4965.00    1.80148   1.87195   -1.000
 4966.00    1.77529   1.83527   -1.000
 4967.00    1.76906   1.82267   -1.000
 4968.00    1.77278   1.82758   -1.000
 4969.00    1.78061   1.84327   -1.000
 4970.00    1.79963   1.86725   -1.000
 4971.00    1.83109   1.89714   -1.000
 4972.00    1.85409   1.92850   -1.000
 4973.00    1.88141   1.95246   -1.000
 4974.00    1.89048   1.96099   -1.000
 4975.00    1.88723   1.95690   -1.000
 4976.00    1.87516   1.94162   -1.000
 4977.00    1.84285   1.91440   -1.000
 4978.00    1.80305   1.88337   -1.000
 4979.00    1.77948   1.85761   -1.000
 4980.00    1.76137   1.82902   -1.000
 4981.00    1.71508   1.78141   -1.000
 4982.00    1.64824   1.71677   -1.000
 4983.00    1.61935   1.66679   -1.000
 4984.00    1.63858   1.66807   -1.000
 4985.00    1.68745   1.71443   -1.000
 4986.00    1.75726   1.78332   -1.000
 4987.00    1.81358   1.84866   -1.000
 4988.00    1.83131   1.89137   -1.000
 4989.00    1.81632   1.89120   -1.000
 4990.00    1.79172   1.86914   -1.000
 4991.00    1.78866   1.85553   -1.000
 4992.00    1.80246   1.86044   -1.000
 4993.00    1.81750   1.87329   -1.000
 4994.00    1.82879   1.88061   -1.000
 4995.00    1.83550   1.88877   -1.000
 4996.00    1.84415   1.90396   -1.000
 4997.00    1.83578   1.90692   -1.000
 4998.00    1.81473   1.87983   -1.000
 4999.00    1.77981   1.83054   -1.000
 5000.00    1.74947   1.77962   -1.000
 5001.00    1.74713   1.75940  149.252
 5002.00    1.74940   1.76502  147.856
 5003.00    1.76461   1.77598  146.869
 5004.00    1.76724   1.76620  148.927
 5005.00    1.72191   1.72833  152.722
 5006.00    1.68319   1.69248  153.639
 5007.00    1.71245   1.70170  149.944
 5008.00    1.77999   1.76174  145.368
 5009.00    1.82184   1.82040  143.764
 5010.00    1.81468   1.83997   -1.000
 5011.00    1.77738   1.81156   -1.000
 5012.00    1.70804   1.75358   -1.000
 5013.00    1.65299   1.69697   -1.000
 5014.00    1.63860   1.67169   -1.000
 5015.00    1.67207   1.68762  155.083
 5016.00    1.70985   1.71736  151.825
 5017.00    1.72478   1.73620  151.141
 5018.00    1.72281   1.74129   -1.000
 5019.00    1.74155   1.75438  149.473
 5020.00    1.76840   1.77677  148.238
 5021.00    1.77067   1.78362  148.868
 5022.00    1.75689   1.77861   -1.000
 5023.00    1.76367   1.78699   -1.000
 5024.00    1.79178   1.81824   -1.000
 5025.00    1.81243   1.85119   -1.000
 5026.00    1.80519   1.85609   -1.000
 5027.00    1.77653   1.83640   -1.000
 5028.00    1.78384   1.82588   -1.000
 5029.00    1.82343   1.84292  143.136
 5030.00    1.85529   1.88166   -1.000
 5031.00    1.87635   1.92342   -1.000
 5032.00    1.90751   1.96010   -1.000
 5033.00    1.93344   1.97826   -1.000
 5034.00    1.89999   1.95799   -1.000
 5035.00    1.82815   1.90261   -1.000
 5036.00    1.77610   1.84788   -1.000
 5037.00    1.76647   1.82405   -1.000
 5038.00    1.76013   1.80822   -1.000
 5039.00    1.71288   1.76247   -1.000
 5040.00    1.62673   1.68799   -1.000
 5041.00    1.58480   1.63889   -1.000
 5042.00    1.64467   1.67087   -1.000
 5043.00    1.75664   1.77090  147.286
 5044.00    1.85807   1.88819   -1.000
 5045.00    1.91632   1.96961   -1.000
 5046.00    1.98857   2.00177  132.945
 5047.00    1.73866   1.98298   -1.000
 5048.00    0.67067   1.92341   -1.000
 5049.00    0.14513   1.85232   -1.000
 5050.00    0.18975   1.80909   -1.000
 5051.00    1.45439   1.80248   -1.000
 5052.00    1.81853   1.82398  144.800
 5053.00    1.86137   1.86906  141.138
 5054.00    1.91071   1.92188  138.552
 5055.00    1.94314   1.95808  137.218
 5056.00    1.95344   1.97546   -1.000
 5057.00    1.94905   1.98520   -1.000
 5058.00    1.95446   1.99456   -1.000
 5059.00    1.95405   2.01001   -1.000
 5060.00    1.96593   2.02813   -1.000
 5061.00    1.97604   2.04245   -1.000
 5062.00    1.96678   2.03634   -1.000
 5063.00    1.93056   1.99150   -1.000
 5064.00    1.85310   1.92110   -1.000
 5065.00    1.79741   1.86347   -1.000
 5066.00    1.81944   1.84683   -1.000
 5067.00    1.84358   1.85687  145.003
 5068.00    1.85085   1.87102   -1.000
 5069.00    1.85877   1.88541   -1.000
 5070.00    1.88475   1.90321  142.892
 5071.00    1.88294   1.90920   -1.000
 5072.00    1.85585   1.89651   -1.000
 5073.00    1.86078   1.88543   -1.000
 5074.00    1.88968   1.89315  142.281
 5075.00    1.89347   1.90616  142.083
 5076.00    1.88544   1.91206   -1.000
 5077.00    1.88370   1.90261  143.342
 5078.00    1.83887   1.86370   -1.000
 5079.00    1.75660   1.79682   -1.000
 5080.00    1.70788   1.74347   -1.000
 5081.00    1.72752   1.74442  153.991
 5082.00    1.77719   1.77604  150.693
 5083.00    1.81246   1.80923  148.659
 5084.00    1.84272   1.84149  145.852
 5085.00    1.88371   1.87878  143.347
 5086.00    1.90889   1.91267  142.313
 5087.00    1.91404   1.93454   -1.000
 5088.00    1.91712   1.94443   -1.000
 5089.00    1.92794   1.95237   -1.000
 5090.00    1.93598   1.96080   -1.000
 5091.00    1.94562   1.97446   -1.000
 5092.00    1.96853   1.99831   -1.000
 5093.00    1.99012   2.02302   -1.000
 5094.00    1.98706   2.02685   -1.000
 5095.00    1.97815   1.99762   -1.000
 5096.00    1.91940   1.94515   -1.000
 5097.00    1.86270   1.88640   -1.000
 5098.00    1.80419   1.83689   -1.000
 5099.00    1.78792   1.81506   -1.000
 5100.00    1.81978   1.84200   -1.000
 5101.00    1.88721   1.89812  142.288
 5102.00    1.91943   1.94570   -1.000
 5103.00    1.91789   1.95471   -1.000
 5104.00    1.89665   1.93888   -1.000
 5105.00    1.87982   1.91665   -1.000
 5106.00    1.85334   1.89073   -1.000
 5107.00    1.83065   1.86278   -1.000
 5108.00    1.82693   1.84146  148.959
 5109.00    1.82243   1.83348  148.003
 5110.00    1.83805   1.84556  146.939
 5111.00    1.87370   1.87622  144.826
 5112.00    1.90570   1.91681  143.049
 5113.00    1.92805   1.94815   -1.000
 5114.00    1.94426   1.96970   -1.000
 5115.00    1.96384   1.99034   -1.000
 5116.00    1.97545   2.01300   -1.000
 5117.00    1.99583   2.03233   -1.000
 5118.00    2.00851   2.03966   -1.000
 5119.00    1.99280   2.02891   -1.000
 5120.00    1.96052   2.00106   -1.000
 5121.00    1.91961   1.96056   -1.000
 5122.00    1.87633   1.91215   -1.000
 5123.00    1.82495   1.86126   -1.000
 5124.00    1.79377   1.82473   -1.000
 5125.00    1.80414   1.81813  151.123
 5126.00    1.83122   1.83186  150.381
 5127.00    1.84032   1.84269  149.483
 5128.00    1.83696   1.84428  149.697
 5129.00    1.83539   1.84819  149.565
 5130.00    1.83985   1.86546   -1.000
 5131.00    1.87497   1.89567   -1.000
 5132.00    1.91252   1.92404  143.907
 5133.00    1.92173   1.94339   -1.000
 5134.00    1.93940   1.95797  141.279
 5135.00    1.96224   1.97010  140.914
 5136.00    1.94038   1.96576   -1.000
 5137.00    1.88825   1.92621   -1.000
 5138.00    1.84139   1.87266   -1.000
 5139.00    1.82263   1.84792   -1.000
 5140.00    1.84180   1.85404  148.170
 5141.00    1.85511   1.86720  149.272
 5142.00    1.83357   1.86598   -1.000
 5143.00    1.82633   1.86373   -1.000
 5144.00    1.85514   1.87934   -1.000
 5145.00    1.87217   1.89134  147.768
 5146.00    1.85688   1.87587  149.159
 5147.00    1.84411   1.85802  149.530
 5148.00    1.86125   1.86060  147.685
 5149.00    1.87726   1.87658  146.853
 5150.00    1.87459   1.88016  148.681
 5151.00    1.84619   1.86295  151.411
 5152.00    1.81452   1.84475   -1.000
 5153.00    1.80937   1.83985   -1.000
 5154.00    1.83660   1.85138  148.721
 5155.00    1.88236   1.88540  144.932
 5156.00    1.94164   1.93732  141.244
 5157.00    1.98998   1.98673  138.601
 5158.00    2.00957   2.01620  137.583
 5159.00    2.01486   2.02654  137.565
 5160.00    2.01642   2.02411  138.028
 5161.00    2.00522   2.00885  138.825
 5162.00    1.97839   1.97632  140.396
 5163.00    1.94803   1.92765   -1.000
 5164.00    1.90210   1.86597   -1.000
 5165.00    1.79232   1.77239   -1.000
 5166.00    1.62441   1.62747  177.183
 5167.00    1.48635   1.48557  189.121
 5168.00    1.46679   1.44742   -1.000
 5169.00    1.56161   1.50804   -1.000
 5170.00    1.63033   1.57453   -1.000
 5171.00    1.56902   1.54287   -1.000
 5172.00    1.44588   1.45336  195.957
 5173.00    1.44713   1.43585  187.825
 5174.00    1.60277   1.54056   -1.000
 5175.00    1.78688   1.71227   -1.000
 5176.00    1.88600   1.83394   -1.000
 5177.00    1.92078   1.88675   -1.000
 5178.00    1.93299   1.90277   -1.000
 5179.00    1.92842   1.89626   -1.000
 5180.00    1.88707   1.85658   -1.000
 5181.00    1.79000   1.75462   -1.000
 5182.00    1.62290   1.59236   -1.000
 5183.00    1.45409   1.45458  197.049
 5184.00    1.43930   1.42838  187.793
 5185.00    1.60049   1.55331   -1.000
 5186.00    1.80194   1.73070   -1.000
 5187.00    1.91150   1.85921   -1.000
 5188.00    1.93388   1.91706  146.228
 5189.00    1.94513   1.93509  145.628
 5190.00    1.94178   1.92224  147.215
 5191.00    1.88831   1.86899  151.938
 5192.00    1.81942   1.80292  156.144
 5193.00    1.81420   1.78207   -1.000
 5194.00    1.84337   1.81080   -1.000
 5195.00    1.87700   1.84319   -1.000
 5196.00    1.90406   1.87661   -1.000
 5197.00    1.93435   1.91781  144.803
 5198.00    1.97052   1.96172  142.346
 5199.00    2.00544   1.99713  141.191
 5200.00    2.02566   2.01315  141.062
 5201.00    2.01826   2.00633  142.216
 5202.00    1.98979   1.97553  144.818
 5203.00    1.94024   1.92011  148.146
 5204.00    1.88208   1.83881   -1.000
 5205.00    1.82217   1.75817   -1.000
 5206.00    1.78824   1.70726   -1.000
 5207.00    1.78495   1.69417   -1.000
 5208.00    1.77701   1.69860   -1.000
 5209.00    1.79136   1.72014   -1.000
 5210.00    1.85269   1.78228   -1.000
 5211.00    1.93554   1.87889   -1.000
 5212.00    2.01558   1.96917   -1.000
 5213.00    2.05680   2.02387   -1.000
 5214.00    2.04101   2.01913   -1.000
 5215.00    1.99556   1.97641  142.490
 5216.00    1.95783   1.93787  144.210
 5217.00    1.97762   1.94562   -1.000
 5218.00    2.01711   1.99585   -1.000
 5219.00    2.06808   2.05248  137.742
 5220.00    2.09053   2.09148  136.697
 5221.00    2.09559   2.10391  136.154
 5222.00    2.08588   2.08825  137.951
 5223.00    2.04269   2.03923  142.210
 5224.00    1.96160   1.95929  148.120
 5225.00    1.86184   1.85657  155.091
 5226.00    1.79077   1.76859   -1.000
 5227.00    1.79381   1.75030   -1.000
 5228.00    1.89094   1.82185   -1.000
 5229.00    1.99207   1.93860   -1.000
 5230.00    2.05883   2.02682   -1.000
 5231.00    2.06617   2.03619   -1.000
 5232.00    2.03567   1.99385   -1.000
 5233.00    1.98558   1.94435   -1.000
 5234.00    1.97434   1.93888   -1.000
 5235.00    2.00830   1.98629   -1.000
 5236.00    2.06462   2.05307  136.776
 5237.00    2.11250   2.11141  135.264
 5238.00    2.12697   2.13746  135.163
 5239.00    2.12593   2.13756  135.603
 5240.00    2.13208   2.12869  135.351
 5241.00    2.14194   2.11994   -1.000
 5242.00    2.13897   2.11618   -1.000
 5243.00    2.13505   2.12377  134.477
 5244.00    2.14839   2.13576  134.264
 5245.00    2.13278   2.12673  137.016
 5246.00    2.06485   2.08059  141.355
 5247.00    2.00671   2.02151  144.628
 5248.00    1.99825   1.98731  144.947
 5249.00    2.00211   1.97855   -1.000
 5250.00    1.98625   1.97676  146.163
 5251.00    1.98340   1.98463  145.440
 5252.00    2.01796   2.00791  143.393
 5253.00    2.04161   2.02490  141.984
 5254.00    2.03714   2.02557  142.033
 5255.00    2.03761   2.02900  140.991
 5256.00    2.08323   2.06748  137.649
 5257.00    2.15391   2.13519  133.914
 5258.00    2.19653   2.18220  132.776
 5259.00    2.18814   2.18640  134.065
 5260.00    2.14180   2.14325  137.799
 5261.00    2.05597   2.06169  143.697
 5262.00    1.95708   1.95992  150.566
 5263.00    1.87258   1.86388  155.748
 5264.00    1.81035   1.78826   -1.000
 5265.00    1.78909   1.75193   -1.000
 5266.00    1.81003   1.75541   -1.000
 5267.00    1.85951   1.77735   -1.000
 5268.00    1.85052   1.76295   -1.000
 5269.00    1.76800   1.70077   -1.000
 5270.00    1.75179   1.66655   -1.000
 5271.00    1.85598   1.73147   -1.000
 5272.00    1.97934   1.86996   -1.000
 5273.00    2.02947   1.96225   -1.000
 5274.00    2.02438   1.97991   -1.000
 5275.00    2.01287   1.98886   -1.000
 5276.00    2.05084   2.02660   -1.000
 5277.00    2.13476   2.09776   -1.000
 5278.00    2.19583   2.16044   -1.000
 5279.00    2.20129   2.17369   -1.000
 5280.00    2.15471   2.13749  136.898
 5281.00    2.09571   2.07586  140.475
 5282.00    2.05396   2.01753   -1.000
 5283.00    2.02872   1.98717   -1.000
 5284.00    2.04666   2.01385   -1.000
 5285.00    2.13628   2.09451   -1.000
 5286.00    2.20647   2.18948  132.069
 5287.00    2.24125   2.23738  131.135
 5288.00    2.25043   2.24525  131.866
 5289.00    2.24698   2.24502  131.832
 5290.00    2.25865   2.25181  131.042
 5291.00    2.26130   2.25826  130.775
 5292.00    2.25338   2.24994  131.566
 5293.00    2.23294   2.23330  132.824
 5294.00    2.20954   2.21410  134.602
 5295.00    2.17732   2.17198  138.305
 5296.00    2.09412   2.09367  143.670
 5297.00    2.00436   2.00926  147.493
 5298.00    1.98645   1.96784  146.472
 5299.00    2.03301   1.99664   -1.000
 5300.00    2.09470   2.05225   -1.000
 5301.00    2.12524   2.09118   -1.000
 5302.00    2.13732   2.12129  137.464
 5303.00    2.19451   2.16701   -1.000
 5304.00    2.25408   2.22824   -1.000
 5305.00    2.27871   2.27026  130.980
 5306.00    2.26254   2.26907  132.297
 5307.00    2.24568   2.25160  133.444
 5308.00    2.24494   2.24719  132.528
 5309.00    2.27761   2.26552  131.121
 5310.00    2.30257   2.28768  130.297
 5311.00    2.30755   2.28925  130.447
 5312.00    2.28988   2.27558  131.198
 5313.00    2.27021   2.25769  131.760
 5314.00    2.26104   2.23852   -1.000
 5315.00    2.24624   2.21779   -1.000
 5316.00    2.21781   2.19664   -1.000
 5317.00    2.20419   2.18701  135.257
 5318.00    2.22869   2.19670   -1.000
 5319.00    2.24479   2.20920   -1.000
 5320.00    2.23762   2.21239   -1.000
 5321.00    2.22892   2.20376   -1.000
 5322.00    2.20601   2.17712   -1.000
 5323.00    2.16146   2.12949   -1.000
 5324.00    2.12218   2.07704   -1.000
 5325.00    2.11073   2.03212   -1.000
 5326.00    2.08219   1.96896   -1.000
 5327.00    1.98090   1.86981   -1.000
 5328.00    1.87744   1.79634   -1.000
 5329.00    1.90228   1.81713   -1.000
 5330.00    2.03926   1.94462   -1.000
 5331.00    2.15244   2.07424   -1.000
 5332.00    2.19464   2.14407   -1.000
 5333.00    2.20952   2.17098   -1.000
 5334.00    2.23537   2.19705   -1.000
 5335.00    2.26457   2.22999   -1.000
 5336.00    2.25809   2.24481  134.553
 5337.00    2.23673   2.23163  135.423
 5338.00    2.22128   2.19377   -1.000
 5339.00    2.17060   2.13028   -1.000
 5340.00    2.11430   2.06510   -1.000
 5341.00    2.10734   2.04747   -1.000
 5342.00    2.15917   2.09656   -1.000
 5343.00    2.21958   2.15646   -1.000
 5344.00    2.23889   2.18582   -1.000
 5345.00    2.22583   2.17940   -1.000
 5346.00    2.21149   2.15939   -1.000
 5347.00    2.20293   2.14050   -1.000
 5348.00    2.18120   2.12296   -1.000
 5349.00    2.16768   2.11512   -1.000
 5350.00    2.20149   2.14046   -1.000
 5351.00    2.26036   2.19228   -1.000
 5352.00    2.29491   2.24351   -1.000
 5353.00    2.30063   2.27829   -1.000
 5354.00    2.31833   2.30061  130.833
 5355.00    2.34995   2.32761   -1.000
 5356.00    2.36808   2.35034  128.189
 5357.00    2.37017   2.35671  128.334
 5358.00    2.37337   2.35341   -1.000
 5359.00    2.36206   2.34308  129.011
 5360.00    2.34173   2.32095   -1.000
 5361.00    2.30491   2.28944  132.773
 5362.00    2.27015   2.25926  134.712
 5363.00    2.23417   2.23326  135.629
 5364.00    2.21550   2.21000  136.413
 5365.00    2.21165   2.18916   -1.000
 5366.00    2.21663   2.17703   -1.000
 5367.00    2.22292   2.17673   -1.000
 5368.00    2.21008   2.16071   -1.000
 5369.00    2.16133   2.10315   -1.000
 5370.00    2.08972   2.02344   -1.000
 5371.00    2.05514   1.97315   -1.000
 5372.00    2.11160   2.00657   -1.000
 5373.00    2.22747   2.10958   -1.000
 5374.00    2.31264   2.21385   -1.000
 5375.00    2.34621   2.27497   -1.000
 5376.00    2.34412   2.28400   -1.000
 5377.00    2.33574   2.27785   -1.000
 5378.00    2.33192   2.27963   -1.000
 5379.00    2.32471   2.28580   -1.000
 5380.00    2.31216   2.27956   -1.000
 5381.00    2.28699   2.25578   -1.000
 5382.00    2.27185   2.23013   -1.000
 5383.00    2.26445   2.21751   -1.000
 5384.00    2.28777   2.22586   -1.000
 5385.00    2.31448   2.24996   -1.000
 5386.00    2.32464   2.27372   -1.000
 5387.00    2.31464   2.27605   -1.000
 5388.00    2.28769   2.25179   -1.000
 5389.00    2.25552   2.21363   -1.000
 5390.00    2.23287   2.17493   -1.000
 5391.00    2.21582   2.15113   -1.000
 5392.00    2.20717   2.14206   -1.000
 5393.00    2.19702   2.14152   -1.000
 5394.00    2.19207   2.13761   -1.000
 5395.00    2.18179   2.11564   -1.000
 5396.00    2.13690   2.07152   -1.000
 5397.00    2.10624   2.03671   -1.000
 5398.00    2.14504   2.05450   -1.000
 5399.00    2.21409   2.11674   -1.000
 5400.00    2.24028   2.17761   -1.000
 5401.00    2.25401   2.20477   -1.000
 5402.00    2.24929   2.19824   -1.000
 5403.00    2.20165   2.15097   -1.000
 5404.00    2.10611   2.06353   -1.000
 5405.00    2.04921   1.97663   -1.000
 5406.00    2.05895   1.96247   -1.000
 5407.00    2.12082   2.01708   -1.000
 5408.00    2.16179   2.06948   -1.000
 5409.00    2.14281   2.08415   -1.000
 5410.00    2.14485   2.07948   -1.000
 5411.00    2.19955   2.11646   -1.000
 5412.00    2.27060   2.18581   -1.000
 5413.00    2.30286   2.23055   -1.000
 5414.00    2.29482   2.24449   -1.000
 5415.00    2.28500   2.24951   -1.000
 5416.00    2.29936   2.27229   -1.000
 5417.00    2.33170   2.30277   -1.000
 5418.00    2.33040   2.30783   -1.000
 5419.00    2.29155   2.28985  134.572
 5420.00    2.27497   2.26972  135.353
 5421.00    2.28998   2.25870   -1.000
 5422.00    2.29758   2.25341   -1.000
 5423.00    2.27842   2.23642   -1.000
 5424.00    2.25515   2.21870   -1.000
 5425.00    2.27102   2.23755   -1.000
 5426.00    2.32050   2.28383   -1.000
 5427.00    2.33739   2.30799   -1.000
 5428.00    2.28181   2.26144   -1.000
 5429.00    2.19830   2.16872   -1.000
 5430.00    2.16597   2.11959   -1.000
 5431.00    2.21649   2.13278   -1.000
 5432.00    2.23475   2.16228   -1.000
 5433.00    2.20531   2.15184   -1.000
 5434.00    2.17072   2.10969   -1.000
 5435.00    2.17021   2.09742   -1.000
 5436.00    2.20670   2.13505   -1.000
 5437.00    2.26713   2.20848   -1.000
 5438.00    2.33510   2.28678   -1.000
 5439.00    2.38456   2.34300   -1.000
 5440.00    2.41616   2.37314   -1.000
 5441.00    2.41239   2.38502   -1.000
 5442.00    2.41372   2.38902   -1.000
 5443.00    2.38833   2.37478  131.608
 5444.00    2.33198   2.32367  135.222
 5445.00    2.23830   2.22983  140.913
 5446.00    2.15149   2.12749   -1.000
 5447.00    2.14232   2.08713   -1.000
 5448.00    2.20756   2.12676   -1.000
 5449.00    2.29252   2.21372   -1.000
 5450.00    2.33798   2.28036   -1.000
 5451.00    2.34916   2.29480   -1.000
 5452.00    2.33303   2.27815   -1.000
 5453.00    2.29465   2.23417   -1.000
 5454.00    2.22816   2.16352   -1.000
 5455.00    2.16886   2.09746   -1.000
 5456.00    2.19085   2.09112   -1.000
 5457.00    2.27699   2.16369   -1.000
 5458.00    2.34800   2.26521   -1.000
 5459.00    2.36959   2.31154   -1.000
 5460.00    2.34978   2.30071   -1.000
 5461.00    2.31259   2.25738   -1.000
 5462.00    2.27122   2.21090   -1.000
 5463.00    2.24539   2.18796   -1.000
 5464.00    2.26790   2.20161   -1.000
 5465.00    2.31024   2.23632   -1.000
 5466.00    2.32833   2.26531   -1.000
 5467.00    2.33705   2.28295   -1.000
 5468.00    2.35217   2.28962   -1.000
 5469.00    2.35152   2.28514   -1.000
 5470.00    2.33313   2.27127   -1.000
 5471.00    2.31916   2.25354   -1.000
 5472.00    2.30935   2.23908   -1.000
 5473.00    2.28995   2.22659   -1.000
 5474.00    2.26016   2.19932   -1.000
 5475.00    2.23245   2.15135   -1.000
 5476.00    2.17528   2.10178   -1.000
 5477.00    2.16000   2.09014   -1.000
 5478.00    2.23192   2.14446   -1.000
 5479.00    2.29642   2.20575   -1.000
 5480.00    2.28845   2.21984   -1.000
 5481.00    2.24153   2.19344   -1.000
 5482.00    2.23939   2.17594   -1.000
 5483.00    2.26723   2.21244   -1.000
 5484.00    2.31794   2.27421   -1.000
 5485.00    2.34645   2.31242   -1.000
 5486.00    2.33159   2.30550   -1.000
 5487.00    2.28344   2.26765  138.376
 5488.00    2.27078   2.23924   -1.000
 5489.00    2.28890   2.23835   -1.000
 5490.00    2.30754   2.26392   -1.000
 5491.00    2.33311   2.28593   -1.000
 5492.00    2.34890   2.29262   -1.000
 5493.00    2.33944   2.28819   -1.000
 5494.00    2.33460   2.28313   -1.000
 5495.00    2.35228   2.28093   -1.000
 5496.00    2.34376   2.26982   -1.000
 5497.00    2.32236   2.25498   -1.000
 5498.00    2.33752   2.26207   -1.000
 5499.00    2.37482   2.28370   -1.000
 5500.00    2.37653   2.28504   -1.000
 5501.00    2.33346   2.25718   -1.000
 5502.00    2.30873   2.22424   -1.000
 5503.00    2.32413   2.22129   -1.000
 5504.00    2.33210   2.23229   -1.000
 5505.00    2.31155   2.22050   -1.000
 5506.00    2.27509   2.19754   -1.000
 5507.00    2.27410   2.19535   -1.000
 5508.00    2.31863   2.22941   -1.000
 5509.00    2.34388   2.27205   -1.000
 5510.00    2.33312   2.27289   -1.000
 5511.00    2.29807   2.23484   -1.000
 5512.00    2.25236   2.18835   -1.000
 5513.00    2.23394   2.16085   -1.000
 5514.00    2.25773   2.16557   -1.000
 5515.00    2.29050   2.19061   -1.000
 5516.00    2.33641   2.22729   -1.000
 5517.00    2.37075   2.26924   -1.000
 5518.00    2.41253   2.31389   -1.000
 5519.00    2.43631   2.34851   -1.000
 5520.00    2.44045   2.35922   -1.000
 5521.00    2.42994   2.35184   -1.000
 5522.00    2.41950   2.34846   -1.000
 5523.00    2.40738   2.34990   -1.000
 5524.00    2.39883   2.34634   -1.000
 5525.00    2.36894   2.32136   -1.000
 5526.00    2.32414   2.26769   -1.000
 5527.00    2.26980   2.20174   -1.000
 5528.00    2.24080   2.15781   -1.000
 5529.00    2.26831   2.17938   -1.000
 5530.00    2.34107   2.24478   -1.000
 5531.00    2.38987   2.30428   -1.000
 5532.00    2.39064   2.32208   -1.000
 5533.00    2.36843   2.30960   -1.000
 5534.00    2.34042   2.29372   -1.000
 5535.00    2.33239   2.28459   -1.000
 5536.00    2.34886   2.28679   -1.000
 5537.00    2.36871   2.29866   -1.000
 5538.00    2.37965   2.31565   -1.000
 5539.00    2.41485   2.33583   -1.000
 5540.00    2.44796   2.35933   -1.000
 5541.00    2.45341   2.37193   -1.000
 5542.00    2.42478   2.36284   -1.000
 5543.00    2.39262   2.34072   -1.000
 5544.00    2.38927   2.32720   -1.000
 5545.00    2.39258   2.32684   -1.000
 5546.00    2.39893   2.33404   -1.000
 5547.00    2.42021   2.34910   -1.000
 5548.00    2.45583   2.37661   -1.000
 5549.00    2.48101   2.40410   -1.000
 5550.00    2.48752   2.41639   -1.000
 5551.00    2.48396   2.41139   -1.000
 5552.00    2.46743   2.39264   -1.000
 5553.00    2.43593   2.36717   -1.000
 5554.00    2.41095   2.34801   -1.000
 5555.00    2.42099   2.34370   -1.000
 5556.00    2.42930   2.34966   -1.000
 5557.00    2.42951   2.35479   -1.000
 5558.00    2.43790   2.35444   -1.000
 5559.00    2.44215   2.35675   -1.000
 5560.00    2.43771   2.35848   -1.000
 5561.00    2.43136   2.34727   -1.000
 5562.00    2.41198   2.32619   -1.000
 5563.00    2.39151   2.31170   -1.000
 5564.00    2.38125   2.30684   -1.000
 5565.00    2.37248   2.30369   -1.000
 5566.00    2.37963   2.29382   -1.000
 5567.00    2.37646   2.28393   -1.000
 5568.00    2.38288   2.28072   -1.000
 5569.00    2.37901   2.28347   -1.000
 5570.00    2.38243   2.29114   -1.000
 5571.00    2.38923   2.29482   -1.000
 5572.00    2.36972   2.28871   -1.000
 5573.00    2.36729   2.28105   -1.000
 5574.00    2.39274   2.28971   -1.000
 5575.00    2.37095   2.31987   -1.000
 5576.00    2.27592   2.34066   -1.000
 5577.00    2.21602   2.34488   -1.000
 5578.00    2.29437   2.35461   -1.000
 5579.00    2.44450   2.36865   -1.000
 5580.00    2.48378   2.37342   -1.000
 5581.00    2.45642   2.36792   -1.000
 5582.00    2.43779   2.35527   -1.000
 5583.00    2.43548   2.34562   -1.000
 5584.00    2.42741   2.33079   -1.000
 5585.00    2.38151   2.28596   -1.000
 5586.00    2.30940   2.21478   -1.000
 5587.00    2.24836   2.14600   -1.000
 5588.00    2.22230   2.11576   -1.000
 5589.00    2.23933   2.13340   -1.000
 5590.00    2.28278   2.17709   -1.000
 5591.00    2.32208   2.22539   -1.000
 5592.00    2.33494   2.25041   -1.000
 5593.00    2.33559   2.25862   -1.000
 5594.00    2.34488   2.26917   -1.000
 5595.00    2.37162   2.29997   -1.000
 5596.00    2.41417   2.33372   -1.000
 5597.00    2.41308   2.33204   -1.000
 5598.00    2.35937   2.29623   -1.000
 5599.00    2.32935   2.25335   -1.000
 5600.00    2.32146   2.22394   -1.000
 5601.00    2.30616   2.20508   -1.000
 5602.00    2.29772   2.20062   -1.000
 5603.00    2.32191   2.23090   -1.000
 5604.00    2.39257   2.29978   -1.000
 5605.00    2.46593   2.37269   -1.000
 5606.00    2.49971   2.41989   -1.000
 5607.00    2.51404   2.43896   -1.000
 5608.00    2.50617   2.43888   -1.000
 5609.00    2.50632   2.43414   -1.000
 5610.00    2.51416   2.43709   -1.000
 5611.00    2.51590   2.44866   -1.000
 5612.00    2.51584   2.44672   -1.000
 5613.00    2.47822   2.40418   -1.000
 5614.00    2.39009   2.31343   -1.000
 5615.00    2.30156   2.22148   -1.000
 5616.00    2.30367   2.19456   -1.000
 5617.00    2.35810   2.23611   -1.000
 5618.00    2.41157   2.29987   -1.000
 5619.00    2.42725   2.32799   -1.000
 5620.00    2.44404   2.34048   -1.000
 5621.00    2.45665   2.36037   -1.000
 5622.00    2.45644   2.36431   -1.000
 5623.00    2.42251   2.33009   -1.000
 5624.00    2.36169   2.27882   -1.000
 5625.00    2.35587   2.24934   -1.000
 5626.00    2.38973   2.27431   -1.000
 5627.00    2.43094   2.32242   -1.000
 5628.00    2.46804   2.36238   -1.000
 5629.00    2.49414   2.39555   -1.000
 5630.00    2.51253   2.41827   -1.000
 5631.00    2.51943   2.42406   -1.000
 5632.00    2.51646   2.41674   -1.000
 5633.00    2.50545   2.40243   -1.000
 5634.00    2.48969   2.38364   -1.000
 5635.00    2.46238   2.35974   -1.000
 5636.00    2.43314   2.33720   -1.000
 5637.00    2.41694   2.32461   -1.000
 5638.00    2.41789   2.32621   -1.000
 5639.00    2.42526   2.33357   -1.000
 5640.00    2.42111   2.33332   -1.000
 5641.00    2.41264   2.32077   -1.000
 5642.00    2.41502   2.31317   -1.000
 5643.00    2.42639   2.32558   -1.000
 5644.00    2.44267   2.34242   -1.000
 5645.00    2.45896   2.35538   -1.000
 5646.00    2.46999   2.36663   -1.000
 5647.00    2.47217   2.37230   -1.000
 5648.00    2.46633   2.36972   -1.000
 5649.00    2.46771   2.36392   -1.000
 5650.00    2.47541   2.36489   -1.000
 5651.00    2.48899   2.38110   -1.000
 5652.00    2.50401   2.39916   -1.000
 5653.00    2.49136   2.39412   -1.000
 5654.00    2.46906   2.37360   -1.000
 5655.00    2.44235   2.35570   -1.000
 5656.00    2.41024   2.33118   -1.000
 5657.00    2.35210   2.28860   -1.000
 5658.00    2.29117   2.23869   -1.000
 5659.00    2.30321   2.22069   -1.000
 5660.00    2.36204   2.25704   -1.000
 5661.00    2.39861   2.29405   -1.000
 5662.00    2.38484   2.29809   -1.000
 5663.00    2.40084   2.31204   -1.000
 5664.00    2.43592   2.34884   -1.000
 5665.00    2.46156   2.37749   -1.000
 5666.00    2.45485   2.38015   -1.000
 5667.00    2.43289   2.36061   -1.000
 5668.00    2.42058   2.34585   -1.000
 5669.00    2.42949   2.34903   -1.000
 5670.00    2.43802   2.36085   -1.000
 5671.00    2.45687   2.38088   -1.000
 5672.00    2.48688   2.41145   -1.000
 5673.00    2.51633   2.43940   -1.000
 5674.00    2.53195   2.45021   -1.000
 5675.00    2.52635   2.44858   -1.000
 5676.00    2.53565   2.44587   -1.000
 5677.00    2.54589   2.44996   -1.000
 5678.00    2.53210   2.44783   -1.000
 5679.00    2.51536   2.43180   -1.000
 5680.00    2.50329   2.41097   -1.000
 5681.00    2.47428   2.38652   -1.000
 5682.00    2.44763   2.35564   -1.000
 5683.00    2.42672   2.33733   -1.000
 5684.00    2.43455   2.34977   -1.000
 5685.00    2.44563   2.36656   -1.000
 5686.00    2.43275   2.36304   -1.000
 5687.00    2.40245   2.34722   -1.000
 5688.00    2.39543   2.33925   -1.000
 5689.00    2.43300   2.35463   -1.000
 5690.00    2.47503   2.38782   -1.000
 5691.00    2.51307   2.42266   -1.000
 5692.00    2.53831   2.44806   -1.000
 5693.00    2.54195   2.45741   -1.000
 5694.00    2.53549   2.45358   -1.000
 5695.00    2.53388   2.44662   -1.000
 5696.00    2.52572   2.43926   -1.000
 5697.00    2.50368   2.42366   -1.000
 5698.00    2.48028   2.39824   -1.000
 5699.00    2.45094   2.37270   -1.000
 5700.00    2.41812   2.35018   -1.000
 5701.00    2.39636   2.33093   -1.000
 5702.00    2.39381   2.33127   -1.000
 5703.00    2.40668   2.35566   -1.000
 5704.00    2.42192   2.37501   -1.000
 5705.00    2.41348   2.37096   -1.000
 5706.00    2.38178   2.33931   -1.000
 5707.00    2.34850   2.29730   -1.000
 5708.00    2.31332   2.26618   -1.000
 5709.00    2.30182   2.24535   -1.000
 5710.00    2.31437   2.24072   -1.000
 5711.00    2.33311   2.25870   -1.000
 5712.00    2.37494   2.29770   -1.000
 5713.00    2.43604   2.35271   -1.000
 5714.00    2.49416   2.40055   -1.000
 5715.00    2.51780   2.42552   -1.000
 5716.00    2.52538   2.44111   -1.000
 5717.00    2.52871   2.45207   -1.000
 5718.00    2.53867   2.46003   -1.000
 5719.00    2.56189   2.47160   -1.000
 5720.00    2.57198   2.48878   -1.000
 5721.00    2.59012   2.50642   -1.000
 5722.00    2.59973   2.52044   -1.000
 5723.00    2.60234   2.52800   -1.000
 5724.00    2.59643   2.52439   -1.000
 5725.00    2.57302   2.50207   -1.000
 5726.00    2.54275   2.46814   -1.000
 5727.00    2.52476   2.44556   -1.000
 5728.00    2.53396   2.45317   -1.000
 5729.00    2.55267   2.47268   -1.000
 5730.00    2.54594   2.47359   -1.000
 5731.00    2.52827   2.46024   -1.000
 5732.00    2.53884   2.45497   -1.000
 5733.00    2.56519   2.47724   -1.000
 5734.00    2.58479   2.50933   -1.000
 5735.00    2.59411   2.51846   -1.000
 5736.00    2.58541   2.50953   -1.000
 5737.00    2.57572   2.49634   -1.000
 5738.00    2.56379   2.49093   -1.000
 5739.00    2.55103   2.49488   -1.000
 5740.00    2.55333   2.49650   -1.000
 5741.00    2.56093   2.49307   -1.000
 5742.00    2.55909   2.48623   -1.000
 5743.00    2.55024   2.49044   -1.000
 5744.00    2.56356   2.51041   -1.000
 5745.00    2.57898   2.52801   -1.000
 5746.00    2.57398   2.52458   -1.000
 5747.00    2.55514   2.49712   -1.000
 5748.00    2.53915   2.47842   -1.000
 5749.00    2.55511   2.48993   -1.000
 5750.00    2.58184   2.50755   -1.000
 5751.00    2.56018   2.50146   -1.000
 5752.00    2.51193   2.45769   -1.000
 5753.00    2.47578   2.41176   -1.000
 5754.00    2.47875   2.40506   -1.000
 5755.00    2.52403   2.44392   -1.000
 5756.00    2.57202   2.50405   -1.000
 5757.00    2.60624   2.54142   -1.000
 5758.00    2.61319   2.54685   -1.000
 5759.00    2.58819   2.52173   -1.000
 5760.00    2.55045   2.47703   -1.000
 5761.00    2.51164   2.43094   -1.000
 5762.00    2.48802   2.40723   -1.000
 5763.00    2.51022   2.42446   -1.000
 5764.00    2.54622   2.48106   -1.000
 5765.00    2.59576   2.53606   -1.000
 5766.00    2.61918   2.55971   -1.000
 5767.00    2.62103   2.56559   -1.000
 5768.00    2.62200   2.56247   -1.000
 5769.00    2.60781   2.55467   -1.000
 5770.00    2.59472   2.54457   -1.000
 5771.00    2.57320   2.53437   -1.000
 5772.00    2.55652   2.52212   -1.000
 5773.00    2.54525   2.51030   -1.000
 5774.00    2.54192   2.50287   -1.000
 5775.00    2.53480   2.50398   -1.000
 5776.00    2.53492   2.51733   -1.000
 5777.00    2.51856   2.52595  134.238
 5778.00    2.46696   2.51211   -1.000
 5779.00    2.38192   2.47106   -1.000
 5780.00    2.29938   2.41157   -1.000
 5781.00    2.28587   2.35993   -1.000
 5782.00    2.33298   2.33692  141.278
 5783.00    2.38430   2.34310   -1.000
 5784.00    2.41907   2.34772   -1.000
 5785.00    2.43942   2.35100   -1.000
 5786.00    2.47439   2.37922   -1.000
 5787.00    2.51898   2.42577   -1.000
 5788.00    2.54332   2.46452   -1.000
 5789.00    2.55359   2.48143   -1.000
 5790.00    2.55173   2.47583   -1.000
 5791.00    2.55037   2.46863   -1.000
 5792.00    2.56365   2.48079   -1.000
 5793.00    2.57290   2.51622   -1.000
 5794.00    2.56947   2.55230   -1.000
 5795.00    2.56262   2.56680  132.906
 5796.00    2.54737   2.55082  133.766
 5797.00    2.52453   2.52050  134.621
 5798.00    2.53960   2.51172   -1.000
 5799.00    2.59927   2.53852   -1.000
 5800.00    2.64884   2.58458   -1.000
 5801.00    2.67542   2.61351   -1.000
 5802.00    2.66269   2.61163   -1.000
 5803.00    2.63046   2.58481   -1.000
 5804.00    2.60561   2.54986   -1.000
 5805.00    2.58549   2.53093   -1.000
 5806.00    2.58236   2.53135   -1.000
 5807.00    2.60113   2.54351   -1.000
 5808.00    2.60870   2.55549   -1.000
 5809.00    2.61598   2.56545   -1.000
 5810.00    2.62895   2.57588   -1.000
 5811.00    2.63782   2.58290   -1.000
 5812.00    2.64402   2.58110   -1.000
 5813.00    2.63779   2.56871   -1.000
 5814.00    2.62670   2.54403   -1.000
 5815.00    2.60654   2.51502   -1.000
 5816.00    2.60314   2.50332   -1.000
 5817.00    2.62867   2.52567   -1.000
 5818.00    2.66000   2.56594   -1.000
 5819.00    2.67664   2.59907   -1.000
 5820.00    2.69148   2.60778   -1.000
 5821.00    2.68822   2.60079   -1.000
 5822.00    2.67976   2.58996   -1.000
 5823.00    2.68225   2.58415   -1.000
 5824.00    2.68901   2.58720   -1.000
 5825.00    2.69124   2.59239   -1.000
 5826.00    2.68841   2.59814   -1.000
 5827.00    2.68551   2.60231   -1.000
 5828.00    2.68691   2.60768   -1.000
 5829.00    2.68591   2.61443   -1.000
 5830.00    2.68548   2.61638   -1.000
 5831.00    2.69354   2.61319   -1.000
 5832.00    2.68988   2.60537   -1.000
 5833.00    2.68687   2.59300   -1.000
 5834.00    2.67952   2.58049   -1.000
 5835.00    2.67575   2.57572   -1.000
 5836.00    2.68300   2.58094   -1.000
 5837.00    2.68399   2.58332   -1.000
 5838.00    2.67557   2.58311   -1.000
 5839.00    2.67969   2.59176   -1.000
 5840.00    2.69366   2.60940   -1.000
 5841.00    2.69474   2.62758   -1.000
 5842.00    2.70016   2.63486   -1.000
 5843.00    2.70162   2.62746   -1.000
 5844.00    2.67937   2.61057   -1.000
 5845.00    2.65951   2.58872   -1.000
 5846.00    2.64986   2.56610   -1.000
 5847.00    2.64176   2.55002   -1.000
 5848.00    2.63748   2.54612   -1.000
 5849.00    2.64644   2.55183   -1.000
 5850.00    2.63801   2.55152   -1.000
 5851.00    2.62043   2.53291   -1.000
 5852.00    2.59265   2.50449   -1.000
 5853.00    2.58277   2.48532   -1.000
 5854.00    2.58124   2.48418   -1.000
 5855.00    2.58112   2.48045   -1.000
 5856.00    2.56069   2.44987   -1.000
 5857.00    2.52172   2.40947   -1.000
 5858.00    2.52388   2.39681   -1.000
 5859.00    2.56114   2.42918   -1.000
 5860.00    2.59474   2.47986   -1.000
 5861.00    2.61573   2.50797   -1.000
 5862.00    2.61501   2.51584   -1.000
 5863.00    2.62815   2.51568   -1.000
 5864.00    2.63002   2.51764   -1.000
 5865.00    2.62462   2.51355   -1.000
 5866.00    2.60853   2.49711   -1.000
 5867.00    2.61237   2.49180   -1.000
 5868.00    2.64188   2.51579   -1.000
 5869.00    2.66901   2.54809   -1.000
 5870.00    2.67813   2.56874   -1.000
 5871.00    2.67675   2.57119   -1.000
 5872.00    2.66946   2.56152   -1.000
 5873.00    2.66572   2.55312   -1.000
 5874.00    2.66868   2.55201   -1.000
 5875.00    2.66374   2.55358   -1.000
 5876.00    2.66082   2.54625   -1.000
 5877.00    2.64922   2.52774   -1.000
 5878.00    2.63675   2.50412   -1.000
 5879.00    2.61227   2.48180   -1.000
 5880.00    2.59167   2.47013   -1.000
 5881.00    2.58762   2.47345   -1.000
 5882.00    2.59702   2.48178   -1.000
 5883.00    2.57968   2.47520   -1.000
 5884.00    2.55591   2.46284   -1.000
 5885.00    2.52478   2.45600   -1.000
 5886.00    2.43128   2.42459  138.342
 5887.00    2.21000   2.32523   -1.000
 5888.00    1.85916   2.13843   -1.000
 5889.00    1.54769   1.93011   -1.000
 5890.00    1.52506   1.82939   -1.000
 5891.00    1.75126   1.88664   -1.000
 5892.00    1.94882   2.03462   -1.000
 5893.00    1.95809   2.12133   -1.000
 5894.00    1.80523   2.09928   -1.000
 5895.00    1.66207   2.00937   -1.000
 5896.00    1.72559   1.97233   -1.000
 5897.00    1.96899   2.06515   -1.000
 5898.00    2.19712   2.20028  146.629
 5899.00    2.33301   2.30834   -1.000
 5900.00    2.43699   2.38144   -1.000
 5901.00    2.52817   2.43190   -1.000
 5902.00    2.57626   2.46071   -1.000
 5903.00    2.59977   2.47496   -1.000
 5904.00    2.60738   2.47893   -1.000
 5905.00    2.60153   2.47660   -1.000
 5906.00    2.60229   2.47764   -1.000
 5907.00    2.61647   2.48899   -1.000
 5908.00    2.62093   2.50271   -1.000
 5909.00    2.61172   2.51366   -1.000
 5910.00    2.61123   2.52385   -1.000
 5911.00    2.61769   2.52625   -1.000
 5912.00    2.61027   2.51121   -1.000
 5913.00    2.57437   2.47685   -1.000
 5914.00    2.54407   2.43837   -1.000
 5915.00    2.53310   2.42349   -1.000
 5916.00    2.55240   2.43614   -1.000
 5917.00    2.57188   2.46180   -1.000
 5918.00    2.58613   2.49164   -1.000
 5919.00    2.59817   2.51151   -1.000
 5920.00    2.60448   2.51863   -1.000
 5921.00    2.60728   2.51468   -1.000
 5922.00    2.59812   2.50735   -1.000
 5923.00    2.59779   2.50763   -1.000
 5924.00    2.61304   2.52209   -1.000
 5925.00    2.62918   2.54045   -1.000
 5926.00    2.64437   2.54948   -1.000
 5927.00    2.64099   2.54025   -1.000
 5928.00    2.62070   2.51407   -1.000
 5929.00    2.61180   2.48954   -1.000
 5930.00    2.61264   2.48552   -1.000
 5931.00    2.62773   2.50748   -1.000
 5932.00    2.63667   2.52673   -1.000
 5933.00    2.63638   2.52402   -1.000
 5934.00    2.62185   2.50748   -1.000
 5935.00    2.62435   2.50293   -1.000
 5936.00    2.63496   2.52518   -1.000
 5937.00    2.64783   2.54903   -1.000
 5938.00    2.65652   2.55588   -1.000
 5939.00    2.65641   2.54765   -1.000
 5940.00    2.63720   2.52605   -1.000
 5941.00    2.60487   2.50245   -1.000
 5942.00    2.59430   2.49445   -1.000
 5943.00    2.61132   2.51007   -1.000
 5944.00    2.63493   2.53513   -1.000
 5945.00    2.64895   2.55359   -1.000
 5946.00    2.64176   2.55392   -1.000
 5947.00    2.61795   2.53481   -1.000
 5948.00    2.59961   2.51023   -1.000
 5949.00    2.59367   2.50496   -1.000
 5950.00    2.60549   2.51888   -1.000
 5951.00    2.61892   2.52397   -1.000
 5952.00    2.61823   2.51594   -1.000
 5953.00    2.61059   2.50744   -1.000
 5954.00    2.61807   2.51204   -1.000
 5955.00    2.62660   2.51904   -1.000
 5956.00    2.61242   2.50896   -1.000
 5957.00    2.60162   2.49717   -1.000
 5958.00    2.61948   2.50707   -1.000
 5959.00    2.65251   2.53453   -1.000
 5960.00    2.67574   2.56491   -1.000
 5961.00    2.69341   2.58541   -1.000
 5962.00    2.70380   2.59031   -1.000
 5963.00    2.70104   2.58333   -1.000
 5964.00    2.69167   2.56812   -1.000
 5965.00    2.66774   2.55229   -1.000
 5966.00    2.65376   2.54914   -1.000
 5967.00    2.66392   2.56363   -1.000
 5968.00    2.67644   2.58063   -1.000
 5969.00    2.68900   2.59331   -1.000
 5970.00    2.70154   2.60372   -1.000
 5971.00    2.70950   2.60990   -1.000
 5972.00    2.70742   2.60856   -1.000
 5973.00    2.69371   2.59994   -1.000
 5974.00    2.67206   2.58145   -1.000
 5975.00    2.64044   2.55088   -1.000
 5976.00    2.61557   2.52175   -1.000
 5977.00    2.60926   2.51017   -1.000
 5978.00    2.62623   2.51794   -1.000
 5979.00    2.64753   2.54233   -1.000
 5980.00    2.66430   2.56733   -1.000
 5981.00    2.67367   2.57354   -1.000
 5982.00    2.65394   2.54810   -1.000
 5983.00    2.61926   2.50761   -1.000
 5984.00    2.59577   2.48067   -1.000
 5985.00    2.60128   2.49074   -1.000
 5986.00    2.62966   2.52335   -1.000
 5987.00    2.65168   2.54770   -1.000
 5988.00    2.67160   2.56441   -1.000
 5989.00    2.67698   2.57556   -1.000
 5990.00    2.66829   2.57737   -1.000
 5991.00    2.67067   2.57657   -1.000
 5992.00    2.67829   2.58799   -1.000
 5993.00    2.70352   2.61230   -1.000
 5994.00    2.71262   2.62949   -1.000
 5995.00    2.70299   2.61998   -1.000
 5996.00    2.69150   2.58902   -1.000
 5997.00    2.66611   2.55956   -1.000
 5998.00    2.65978   2.54905   -1.000
 5999.00    2.66106   2.56158   -1.000
 6000.00    2.67395   2.57541   -1.000
 6001.00    2.67341   2.57724   -1.000
 6002.00    2.65925   2.56720   -1.000
 6003.00    2.64612   2.55948   -1.000
 6004.00    2.64572   2.56702   -1.000
 6005.00    2.64445   2.56559   -1.000
 6006.00    2.62542   2.53880   -1.000
 6007.00    2.59662   2.50564   -1.000
 6008.00    2.58874   2.49629   -1.000
 6009.00    2.60606   2.53000   -1.000
 6010.00    2.63334   2.57167   -1.000
 6011.00    2.65326   2.57847   -1.000
 6012.00    2.64216   2.55874   -1.000
 6013.00    2.63709   2.53882   -1.000
 6014.00    2.64365   2.54014   -1.000
 6015.00    2.64400   2.54865   -1.000
 6016.00    2.64234   2.54463   -1.000
 6017.00    2.63886   2.54167   -1.000
 6018.00    2.64069   2.54403   -1.000
 6019.00    2.62359   2.53378   -1.000
 6020.00    2.60880   2.51914   -1.000
 6021.00    2.62243   2.51962   -1.000
 6022.00    2.63755   2.53122   -1.000
 6023.00    2.64879   2.54841   -1.000
 6024.00    2.66300   2.56793   -1.000
 6025.00    2.67723   2.58742   -1.000
 6026.00    2.69416   2.60254   -1.000
 6027.00    2.70795   2.61468   -1.000
 6028.00    2.71382   2.63013   -1.000
 6029.00    2.73062   2.64382   -1.000
 6030.00    2.74007   2.64948   -1.000
 6031.00    2.73960   2.65361   -1.000
 6032.00    2.74482   2.66073   -1.000
 6033.00    2.75373   2.67477   -1.000
 6034.00    2.74912   2.69540   -1.000
 6035.00    2.73983   2.70692   -1.000
 6036.00    2.73908   2.70149   -1.000
 6037.00    2.73640   2.68644   -1.000
 6038.00    2.73236   2.66808   -1.000
 6039.00    2.72297   2.65233   -1.000
 6040.00    2.71404   2.64414   -1.000
 6041.00    2.72007   2.64806   -1.000
 6042.00    2.72235   2.65760   -1.000
 6043.00    2.73741   2.67214   -1.000
 6044.00    2.75582   2.68864   -1.000
 6045.00    2.75449   2.69775   -1.000
 6046.00    2.75998   2.70343   -1.000
 6047.00    2.76608   2.70530   -1.000
 6048.00    2.75898   2.70603   -1.000
 6049.00    2.77142   2.70646   -1.000
 6050.00    2.77762   2.70642   -1.000
 6051.00    2.77341   2.69894   -1.000
 6052.00    2.76576   2.68209   -1.000
 6053.00    2.75802   2.66216   -1.000
 6054.00    2.74490   2.64326   -1.000
 6055.00    2.71575   2.62644   -1.000
 6056.00    2.71180   2.61928   -1.000
 6057.00    2.72046   2.62849   -1.000
 6058.00    2.73548   2.64583   -1.000
 6059.00    2.74152   2.66276   -1.000
 6060.00    2.75833   2.66975   -1.000
 6061.00    2.74974   2.66161   -1.000
 6062.00    2.73354   2.63839   -1.000
 6063.00    2.82505   2.60433   -1.000
 6064.00    2.73049   2.57436   -1.000
 6065.00    2.66918   2.56932   -1.000
 6066.00    2.21225   2.60139   -1.000
 6067.00    0.85371   2.65244   -1.000
 6068.00    1.78396   2.69158   -1.000
 6069.00    2.70077   2.70777  136.232
 6070.00    2.66370   2.71633   -1.000
 6071.00    2.73469   2.72352   -1.000
 6072.00    2.92124   2.72699   -1.000
 6073.00    2.84186   2.72579   -1.000
 6074.00    2.78273   2.71950   -1.000
 6075.00    2.78033   2.70580   -1.000
 6076.00    2.76969   2.68379   -1.000
 6077.00    2.74179   2.65742   -1.000
 6078.00    2.70948   2.63550   -1.000
 6079.00    2.70104   2.62608   -1.000
 6080.00    2.70234   2.62046   -1.000
 6081.00    2.69495   2.61112   -1.000
 6082.00    2.67977   2.60457   -1.000
 6083.00    2.68058   2.60893   -1.000
 6084.00    2.69283   2.61640   -1.000
 6085.00    2.69758   2.62446   -1.000
 6086.00    2.70311   2.63633   -1.000
 6087.00    2.71104   2.64560   -1.000
 6088.00    2.71013   2.64366   -1.000
 6089.00    2.69686   2.62637   -1.000
 6090.00    2.68728   2.60548   -1.000
 6091.00    2.68310   2.59877   -1.000
 6092.00    2.68971   2.60830   -1.000
 6093.00    2.69942   2.62930   -1.000
 6094.00    2.71837   2.65301   -1.000
 6095.00    2.74815   2.66886   -1.000
 6096.00    2.75496   2.67227   -1.000
 6097.00    2.74793   2.67518   -1.000
 6098.00    2.74177   2.68459   -1.000
 6099.00    2.73533   2.68138   -1.000
 6100.00    2.71343   2.64599   -1.000
 6101.00    2.66117   2.57805   -1.000
 6102.00    2.60477   2.51614   -1.000
 6103.00    2.59507   2.51506   -1.000
 6104.00    2.64130   2.56443   -1.000
 6105.00    2.69690   2.62121   -1.000
 6106.00    2.73068   2.65044   -1.000
 6107.00    2.72235   2.66251   -1.000
 6108.00    2.71232   2.67602   -1.000
 6109.00    2.72433   2.68692   -1.000
 6110.00    2.72874   2.68462   -1.000
 6111.00    2.71915   2.67961   -1.000
 6112.00    2.72697   2.68630   -1.000
 6113.00    2.74687   2.70195   -1.000
 6114.00    2.75251   2.71070   -1.000
 6115.00    2.74161   2.70234   -1.000
 6116.00    2.72860   2.69013   -1.000
 6117.00    2.71871   2.68318   -1.000
 6118.00    2.71598   2.66690   -1.000
 6119.00    2.68289   2.62752   -1.000
 6120.00    2.64832   2.57158   -1.000
 6121.00    2.61369   2.52027   -1.000
 6122.00    2.60230   2.50873   -1.000
 6123.00    2.63581   2.55255   -1.000
 6124.00    2.67509   2.61177   -1.000
 6125.00    2.70792   2.64011   -1.000
 6126.00    2.70133   2.64213   -1.000
 6127.00    2.68036   2.63410   -1.000
 6128.00    2.67538   2.63576   -1.000
 6129.00    2.68979   2.65784   -1.000
 6130.00    2.71989   2.68954   -1.000
 6131.00    2.74522   2.71462   -1.000
 6132.00    2.73581   2.71910   -1.000
 6133.00    2.72058   2.69032   -1.000
 6134.00    2.66838   2.61931   -1.000
 6135.00    2.58939   2.51841   -1.000
 6136.00    2.51148   2.43751   -1.000
 6137.00    2.49034   2.43616   -1.000
 6138.00    2.54633   2.50522   -1.000
 6139.00    2.62998   2.58799   -1.000
 6140.00    2.67165   2.62227   -1.000
 6141.00    2.66869   2.62250   -1.000
 6142.00    2.67002   2.63759   -1.000
 6143.00    2.69358   2.67151   -1.000
 6144.00    2.72636   2.70099   -1.000
 6145.00    2.73309   2.70927   -1.000
 6146.00    2.72339   2.69836   -1.000
 6147.00    2.70482   2.67593   -1.000
 6148.00    2.67999   2.64952   -1.000
 6149.00    2.65782   2.62995   -1.000
 6150.00    2.65602   2.62581   -1.000
 6151.00    2.66356   2.63906   -1.000
 6152.00    2.67631   2.65370   -1.000
 6153.00    2.68441   2.65316   -1.000
 6154.00    2.67225   2.63478   -1.000
 6155.00    2.65290   2.61829   -1.000
 6156.00    2.64393   2.61350   -1.000
 6157.00    2.63460   2.60832   -1.000
 6158.00    2.60971   2.58639   -1.000
 6159.00    2.57335   2.52879   -1.000
 6160.00    2.50195   2.43455   -1.000
 6161.00    2.42220   2.33847   -1.000
 6162.00    2.38419   2.29917   -1.000
 6163.00    2.40257   2.33350   -1.000
 6164.00    2.45836   2.40375   -1.000
 6165.00    2.51938   2.47059   -1.000
 6166.00    2.54233   2.50545   -1.000
 6167.00    2.53529   2.50247   -1.000
 6168.00    2.51064   2.46664   -1.000
 6169.00    2.47353   2.43587   -1.000
 6170.00    2.47751   2.44623   -1.000
 6171.00    2.51274   2.49641   -1.000
 6172.00    2.55131   2.54302  145.662
 6173.00    2.57222   2.56425  145.982
 6174.00    2.57842   2.57302  146.066
 6175.00    2.58215   2.57602  145.668
 6176.00    2.57973   2.57702  145.405
 6177.00    2.58166   2.58497  144.997
 6178.00    2.59938   2.59899  144.249
 6179.00    2.61652   2.60861  143.750
 6180.00    2.62449   2.61671  143.294
 6181.00    2.63554   2.63117  142.604
 6182.00    2.64187   2.64142  142.276
 6183.00    2.64485   2.63737  142.619
 6184.00    2.64234   2.62240   -1.000
 6185.00    2.61726   2.59892   -1.000
 6186.00    2.59192   2.57161   -1.000
 6187.00    2.56869   2.54826   -1.000
 6188.00    2.54521   2.52983   -1.000
 6189.00    2.53296   2.50067   -1.000
 6190.00    2.50991   2.46193   -1.000
 6191.00    2.48838   2.44717   -1.000
 6192.00    2.50669   2.47762   -1.000
 6193.00    2.56073   2.53507   -1.000
 6194.00    2.60095   2.58525   -1.000
 6195.00    2.61763   2.61196  143.925
 6196.00    2.62824   2.62118  143.759
 6197.00    2.62403   2.61049  144.808
 6198.00    2.59733   2.58197   -1.000
 6199.00    2.56334   2.55903  147.687
 6200.00    2.54512   2.56882  147.427
 6201.00    2.55322   2.59863   -1.000
 6202.00    2.57076   2.62794   -1.000
 6203.00    2.57825   2.64560   -1.000
 6204.00    2.59890   2.65282   -1.000
 6205.00    2.62366   2.65806   -1.000
 6206.00    2.63636   2.66279  143.485
 6207.00    2.64991   2.66570  144.098
 6208.00    2.65510   2.66204  144.014
 6209.00    2.64341   2.64939  144.732
 6210.00    2.62361   2.62945  146.123
 6211.00    2.59044   2.59865  147.230
 6212.00    2.55816   2.55341  148.714
 6213.00    2.51791   2.50431  151.069
 6214.00    2.49425   2.47283   -1.000
 6215.00    2.49975   2.47226   -1.000
 6216.00    2.52004   2.49078   -1.000
 6217.00    2.53653   2.50691   -1.000
 6218.00    2.53999   2.50401   -1.000
 6219.00    2.53690   2.49003   -1.000
 6220.00    2.52522   2.49067   -1.000
 6221.00    2.54051   2.50793   -1.000
 6222.00    2.59050   2.52670   -1.000
 6223.00    2.46244   2.53636   -1.000
 6224.00    2.17808   2.54169   -1.000
 6225.00    2.55732   2.54940  148.795
 6226.00    2.59236   2.55439   -1.000
 6227.00    2.57491   2.54421   -1.000
 6228.00    2.55038   2.50854   -1.000
 6229.00    2.50416   2.45325   -1.000
 6230.00    2.46363   2.40922   -1.000
 6231.00    2.45858   2.40517   -1.000
 6232.00    2.48512   2.44449   -1.000
 6233.00    2.53550   2.50674   -1.000
 6234.00    2.58973   2.56466   -1.000
 6235.00    2.60679   2.59404  147.243
 6236.00    2.59637   2.58769  148.366
 6237.00    2.57299   2.56043  149.899
 6238.00    2.54899   2.52705   -1.000
 6239.00    2.51934   2.50200   -1.000
 6240.00    2.50028   2.48830  153.582
 6241.00    2.50221   2.47996   -1.000
 6242.00    2.48938   2.46660   -1.000
 6243.00    2.47349   2.45219   -1.000
 6244.00    2.47474   2.44801   -1.000
 6245.00    2.48565   2.45769   -1.000
 6246.00    2.50922   2.48465   -1.000
 6247.00    2.53210   2.52612  150.900
 6248.00    2.56314   2.56234  149.365
 6249.00    2.57686   2.57334  149.333
 6250.00    2.57105   2.55428   -1.000
 6251.00    2.52872   2.51143   -1.000
 6252.00    2.47417   2.46932  155.543
 6253.00    2.45154   2.44829  156.550
 6254.00    2.45812   2.44531   -1.000
 6255.00    2.45578   2.44145   -1.000
 6256.00    2.44381   2.42407   -1.000
 6257.00    2.41982   2.40848  159.793
 6258.00    2.42179   2.41688  158.937
 6259.00    2.46369   2.45212  156.421
 6260.00    2.50720   2.50170  154.090
 6261.00    2.54393   2.54822  152.017
 6262.00    2.56658   2.58187  149.628
 6263.00    2.58458   2.59225  149.020
 6264.00    2.58004   2.58358  150.346
 6265.00    2.56203   2.57319  151.308
 6266.00    2.55103   2.57797  150.500
 6267.00    2.55661   2.58819   -1.000
 6268.00    2.55063   2.58680   -1.000
 6269.00    2.53720   2.58108   -1.000
 6270.00    2.53697   2.58354   -1.000
 6271.00    2.56284   2.59486   -1.000
 6272.00    2.57600   2.60448   -1.000
 6273.00    2.57703   2.60129  150.115
 6274.00    2.55309   2.58225   -1.000
 6275.00    2.52972   2.55513  152.482
 6276.00    2.49558   2.52901   -1.000
 6277.00    2.43739   2.50699   -1.000
 6278.00    2.37993   2.49061   -1.000
 6279.00    2.34051   2.47829   -1.000
 6280.00    2.31837   2.47747   -1.000
 6281.00    2.28796   2.49799   -1.000
 6282.00    2.27802   2.53618   -1.000
 6283.00    2.28281   2.57546   -1.000
 6284.00    2.32792   2.60426   -1.000
 6285.00    2.38665   2.62094   -1.000
 6286.00    2.45685   2.63628   -1.000
 6287.00    2.52175   2.65225   -1.000
 6288.00    2.56150   2.65794   -1.000
 6289.00    2.57225   2.64534   -1.000
 6290.00    2.55579   2.62021   -1.000
 6291.00    2.55750   2.59803   -1.000
 6292.00    2.55514   2.58895   -1.000
 6293.00    2.55318   2.58849   -1.000
 6294.00    2.55672   2.58619   -1.000
 6295.00    2.54262   2.56805  153.678
 6296.00    2.52116   2.54092  154.669
 6297.00    2.50238   2.52693  154.849
 6298.00    2.49246   2.53303   -1.000
 6299.00    2.49194   2.54214   -1.000
 6300.00    2.48439   2.53463   -1.000
 6301.00    2.46983   2.52164   -1.000
 6302.00    2.48138   2.52618   -1.000
 6303.00    2.51351   2.54789   -1.000
 6304.00    2.54086   2.57541   -1.000
 6305.00    2.55593   2.60036   -1.000
 6306.00    2.56950   2.62588   -1.000
 6307.00    2.58942   2.65082   -1.000
 6308.00    2.59452   2.66360   -1.000
 6309.00    2.59101   2.65710   -1.000
 6310.00    2.58043   2.64013   -1.000
 6311.00    2.56128   2.62339   -1.000
 6312.00    2.54892   2.61266   -1.000
 6313.00    2.54266   2.60056   -1.000
 6314.00    2.52220   2.58084   -1.000
 6315.00    2.49639   2.56297   -1.000
 6316.00    2.48575   2.54947   -1.000
 6317.00    2.48255   2.53459   -1.000
 6318.00    2.48287   2.53315   -1.000
 6319.00    2.49846   2.56099   -1.000
 6320.00    2.54030   2.59751   -1.000
 6321.00    2.56894   2.62222   -1.000
 6322.00    2.57928   2.63961   -1.000
 6323.00    2.58928   2.65891   -1.000
 6324.00    2.60399   2.67837   -1.000
 6325.00    2.61577   2.68790   -1.000
 6326.00    2.61934   2.68819   -1.000
 6327.00    2.62129   2.68875   -1.000
 6328.00    2.62274   2.69045   -1.000
 6329.00    2.63076   2.68917   -1.000
 6330.00    2.62643   2.69013   -1.000
 6331.00    2.62556   2.70079   -1.000
 6332.00    2.62464   2.70694   -1.000
 6333.00    2.61036   2.68914   -1.000
 6334.00    2.58759   2.64502   -1.000
 6335.00    2.53624   2.59951   -1.000
 6336.00    2.51970   2.58632   -1.000
 6337.00    2.55079   2.60385   -1.000
 6338.00    2.58022   2.63432   -1.000
 6339.00    2.60921   2.66621   -1.000
 6340.00    2.62480   2.68790   -1.000
 6341.00    2.62281   2.68621   -1.000
 6342.00    2.60766   2.66425   -1.000
 6343.00    2.59134   2.63808   -1.000
 6344.00    2.57719   2.63135   -1.000
 6345.00    2.58369   2.65047   -1.000
 6346.00    2.59941   2.67890   -1.000
 6347.00    2.61092   2.70569   -1.000
 6348.00    2.62352   2.72587   -1.000
 6349.00    2.63112   2.73891   -1.000
 6350.00    2.63721   2.74439   -1.000
 6351.00    2.63745   2.74092   -1.000
 6352.00    2.62864   2.72512   -1.000
 6353.00    2.60129   2.69742   -1.000
 6354.00    2.57289   2.67143   -1.000
 6355.00    2.56350   2.65903   -1.000
 6356.00    2.55654   2.64986   -1.000
 6357.00    2.53841   2.62907   -1.000
 6358.00    2.52082   2.59994   -1.000
 6359.00    2.50792   2.57660   -1.000
 6360.00    2.50553   2.56233   -1.000
 6361.00    2.50085   2.55301   -1.000
 6362.00    2.49051   2.55439   -1.000
 6363.00    2.50152   2.57330   -1.000
 6364.00    2.52080   2.60520   -1.000
 6365.00    2.54604   2.63916   -1.000
 6366.00    2.56054   2.67166   -1.000
 6367.00    2.57895   2.70095   -1.000
 6368.00    2.59749   2.71879   -1.000
 6369.00    2.60912   2.72280   -1.000
 6370.00    2.60239   2.72457   -1.000
 6371.00    2.59930   2.73428   -1.000
 6372.00    2.61560   2.75070   -1.000
 6373.00    2.61838   2.76107   -1.000
 6374.00    2.60848   2.76187   -1.000
 6375.00    2.59815   2.75963   -1.000
 6376.00    2.58233   2.75302   -1.000
 6377.00    2.57044   2.73795   -1.000
 6378.00    2.55918   2.72081   -1.000
 6379.00    2.55391   2.70949   -1.000
 6380.00    2.54554   2.70711   -1.000
 6381.00    2.54564   2.71262   -1.000
 6382.00    2.55204   2.72014   -1.000
 6383.00    2.56222   2.72425   -1.000
 6384.00    2.55574   2.72689   -1.000
 6385.00    2.54949   2.73509   -1.000
 6386.00    2.54439   2.74647   -1.000
 6387.00    2.53852   2.75273   -1.000
 6388.00    2.54103   2.75474   -1.000
 6389.00    2.53377   2.75368   -1.000
 6390.00    2.50631   2.73897   -1.000
 6391.00    2.47573   2.70255   -1.000
 6392.00    2.44231   2.65683   -1.000
 6393.00    2.40688   2.63467   -1.000
 6394.00    2.40157   2.65787   -1.000
 6395.00    2.42525   2.70431   -1.000
 6396.00    2.44270   2.73879   -1.000
 6397.00    2.43343   2.73370   -1.000
 6398.00    2.39555   2.68906   -1.000
 6399.00    2.35414   2.63827   -1.000
 6400.00    2.32377   2.63069   -1.000
 6401.00    2.34086   2.67743   -1.000
 6402.00    2.37289   2.73575   -1.000
 6403.00    2.40461   2.77444   -1.000
 6404.00    2.40043   2.78348   -1.000
 6405.00    2.37842   2.76465   -1.000
 6406.00    2.34214   2.73151   -1.000
 6407.00    2.30795   2.70761   -1.000
 6408.00    2.28638   2.70503   -1.000
 6409.00    2.27458   2.71432   -1.000
 6410.00    2.25870   2.71421   -1.000
 6411.00    2.23373   2.70180   -1.000
 6412.00    2.21498   2.69809   -1.000
 6413.00    2.20312   2.70924   -1.000
 6414.00    2.20528   2.72527   -1.000
 6415.00    2.20382   2.74137   -1.000
 6416.00    2.19450   2.74984   -1.000
 6417.00    2.17957   2.74139   -1.000
 6418.00    2.15243   2.71377   -1.000
 6419.00    2.11539   2.67708   -1.000
 6420.00    2.07038   2.65581   -1.000
 6421.00    2.05617   2.67248   -1.000
 6422.00    2.06536   2.71540   -1.000
 6423.00    2.07528   2.75482   -1.000
 6424.00    2.07582   2.77877   -1.000
 6425.00    2.06395   2.79202   -1.000
 6426.00    2.04891   2.80206   -1.000
 6427.00    2.03284   2.79910   -1.000
 6428.00    2.00637   2.76828   -1.000
