###################################################################
## OUTPUT of StarlightChains_v04.for    [Cid@UFSC - 01/Apr/2007] ##
###################################################################

## Some input info
NGC7089_a_1.cxt                          [arq_obs]
Base.BC03.S                              [arq_base]
NGC7089_a_1.msk                          [arq_masks]
StCv04.C99.config                        [arq_config]
  150                                    [N_base]
    0                                    [N_YAV_components = # of components with extra extinction!]
    0                                    [i_FitPowerLaw (1/0 = Yes/No)]
-9.99                                    [alpha_PowerLaw]
CCM                                      [red_law_option]
 1.458241                                [q_norm = A(l_norm)/A(V)]

## (Re)Sampling Parameters
 3359.00                                 [l_ini (A)]
 6428.00                                 [l_fin (A)]
    1.00                                 [dl    (A)]     (OBS: dl_cushion =    50.00 A)

## Normalization info
 4020.00                                 [l_norm (A) - for base]
 4010.00                                 [llow_norm (A) - window for f_obs]
 4060.00                                 [lupp_norm (A) - window for f_obs]
7.608305E-14                             [fobs_norm (in input units)]

## S/N
 4730.00                                 [llow_SN (A) - window for S/N]
 4780.00                                 [lupp_SN (A) - window for S/N]
 117.458                                 [S/N in S/N window]
 112.425                                 [S/N in norm. window]
 300.443                                 [S/N_err in S/N window]
 287.568                                 [S/N_err in norm. window]
  1.0000                                 [fscale_chi2]

## etc...
  2147483586                             [idum_orig]
  3066                                   [NOl_eff]
   690                                   [Nl_eff]
  2376    NSIGMA                         [Ntot_cliped & clip_method]
  2672460                                [Nglobal_steps]
   7                                     [N_chains]
  15                                     [NEX0s_base = N_base in EX0s-fits]
 0   0   1      249   2.0   6.084E+02    [Clip-Bug, RC-Crash & Burn-In warning-flags, n_censored_weights, wei_nsig_threshold & wei_limit]
   113    112.265    112.253      0.012  [idt_all, wdt_TotTime, wdt_UsrTime & wdt_SysTime (sec)]

## Synthesis Results - Best model ##

 2.55827E+00                             [chi2/Nl_eff]
     0.65869                             [adev (%)]

   102.25357                             [sum-of-x (%)]
 9.36171E-14                             [Flux_tot (units of input spectrum!)]
 8.92571E-10                             [Mini_tot (???)]
 4.69440E-10                             [Mcor_tot (???)]

 -18.30                                  [v0_min  (km/s)]
  58.59                                  [vd_min  (km/s)]
 0.1378                                  [AV_min  (mag)]
 0.0000                                  [YAV_min (mag)]

# j     x_j(%)      Mini_j(%)     Mcor_j(%)     age_j(yr)     Z_j      (L/M)_j    YAV?  Mstars   component_j        a/Fe...       SSP_chi2r SSP_adev(%)   SSP_AV   SSP_x(%)
  1      0.0000     0.0000E+00    0.0000E+00    1.000000E+06  0.00010  8.160E-03    0   1.0000   age020_m22            0.0000     2.4363E+03    15.7716   3.6978    75.1326
  2     15.4055     3.3204E-02    6.3133E-02    3.160000E+06  0.00010  4.759E-02    0   1.0000   age045_m22            0.0000     3.0989E+02     5.7738   1.5470    96.3056
  3      0.0000     0.0000E+00    0.0000E+00    5.010000E+06  0.00010  1.932E-02    0   0.9582   age055_m22            0.0000     2.1608E+03    14.9278   1.9860    81.1788
  4      0.0000     0.0000E+00    0.0000E+00    6.610000E+06  0.00010  9.973E-03    0   0.9297   age061_m22            0.0000     2.3834E+03    15.7382   3.6547    77.9536
  5      0.0000     0.0000E+00    0.0000E+00    8.710000E+06  0.00010  7.690E-03    0   0.9030   age067_m22            0.0000     2.2529E+03    15.3314   3.6441    78.4263
  6      0.0000     0.0000E+00    0.0000E+00    1.000000E+07  0.00010  6.375E-03    0   0.8902   age070_m22            0.0000     2.1414E+03    14.9695   3.6547    78.6712
  7      0.0000     0.0000E+00    0.0000E+00    1.445000E+07  0.00010  4.874E-03    0   0.8589   age078_m22            0.0000     1.5779E+03    13.0539   3.4464    81.8068
  8      0.0000     0.0000E+00    0.0000E+00    2.512000E+07  0.00010  4.103E-03    0   0.8174   age090_m22            0.0000     6.5756E+02     8.9430   2.9727    89.1348
  9      0.0000     0.0000E+00    0.0000E+00    4.000000E+07  0.00010  3.654E-03    0   0.7830   age104_m22            0.0000     3.3132E+02     5.9625   2.6068    95.0595
 10      0.0000     0.0000E+00    0.0000E+00    5.500000E+07  0.00010  3.093E-03    0   0.7597   age110_m22            0.0000     2.9460E+02     5.0413   2.4752    97.1374
 11      0.0000     0.0000E+00    0.0000E+00    1.015200E+08  0.00010  2.431E-03    0   0.7138   age116_m22            0.0000     3.9199E+02     4.6616   2.0910   100.7851
 12      0.0000     0.0000E+00    0.0000E+00    1.609000E+08  0.00010  1.319E-03    0   0.6775   age120_m22            0.0000     3.7886E+02     4.2690   1.6001   103.1550
 13      0.0000     0.0000E+00    0.0000E+00    2.861200E+08  0.00010  1.075E-03    0   0.6412   age125_m22            0.0000     1.3792E+03     8.4861   1.5603   108.9638
 14      0.0000     0.0000E+00    0.0000E+00    5.088000E+08  0.00010  7.183E-04    0   0.6083   age130_m22            0.0000     1.8204E+03    10.1882   1.2972   111.2787
 15      0.0000     0.0000E+00    0.0000E+00    9.047900E+08  0.00010  4.524E-04    0   0.5785   age135_m22            0.0000     1.8713E+03    10.3963   1.0930   112.5439
 16      0.0000     0.0000E+00    0.0000E+00    1.278050E+09  0.00010  3.018E-04    0   0.5588   age138_m22            0.0000     7.2489E+02     6.4325   0.6191   109.1648
 17      0.0000     0.0000E+00    0.0000E+00    1.434000E+09  0.00010  2.691E-04    0   0.5532   age139_m22            0.0000     5.4960E+02     5.6030   0.4745   108.2421
 18      0.0000     0.0000E+00    0.0000E+00    2.500000E+09  0.00010  1.582E-04    0   0.5296   age150_m22            0.0000     4.4537E+02     4.7883   0.3871   108.4770
 19      0.0000     0.0000E+00    0.0000E+00    4.250000E+09  0.00010  1.007E-04    0   0.5110   age158_m22            0.0000     1.6469E+02     2.9022   0.2679   105.9751
 20      0.0000     0.0000E+00    0.0000E+00    6.250000E+09  0.00010  6.869E-05    0   0.4985   age166_m22            0.0000     3.5111E+01     1.5720   0.2419   102.4565
 21      0.0281     4.9037E-02    4.5975E-02    7.500000E+09  0.00010  5.873E-05    0   0.4931   age171_m22            0.0000     3.6546E+01     1.7473   0.2411   101.7149
 22      0.2877     6.5862E-01    6.0785E-01    1.000000E+10  0.00010  4.481E-05    0   0.4854   age181_m22            0.0000     3.2767E+01     1.6783   0.2027   101.3277
 23      0.5285     1.5537E+00    1.4153E+00    1.300000E+10  0.00010  3.489E-05    0   0.4791   age193_m22            0.0000     2.5425E+01     1.5313   0.1456   100.7288
 24      1.4669     4.9575E+00    4.4924E+00    1.500000E+10  0.00010  3.035E-05    0   0.4766   age201_m22            0.0000     2.3215E+01     1.4942   0.1072   100.4853
 25      0.0000     0.0000E+00    0.0000E+00    1.800000E+10  0.00010  2.510E-05    0   0.4735   age213_m22            0.0000     2.3471E+01     1.5497   0.0421    99.7348
 26      0.0000     0.0000E+00    0.0000E+00    1.000000E+06  0.00040  8.458E-03    0   1.0000   age020_m32            0.0000     2.3896E+03    15.6416   3.7118    75.8261
 27      0.0000     0.0000E+00    0.0000E+00    3.160000E+06  0.00040  3.973E-02    0   1.0000   age045_m32            0.0000     7.6056E+02     9.4033   2.8795    88.9397
 28      0.0000     0.0000E+00    0.0000E+00    5.010000E+06  0.00040  1.935E-02    0   0.9532   age055_m32            0.0000     1.7865E+03    13.9989   3.1763    82.0215
 29      0.0000     0.0000E+00    0.0000E+00    6.610000E+06  0.00040  1.204E-02    0   0.9243   age061_m32            0.0000     1.9817E+03    14.4862   3.4989    80.0806
 30      0.0000     0.0000E+00    0.0000E+00    8.710000E+06  0.00040  9.433E-03    0   0.9001   age067_m32            0.0000     1.7660E+03    13.7513   3.4619    81.1023
 31      0.0000     0.0000E+00    0.0000E+00    1.000000E+07  0.00040  8.053E-03    0   0.8877   age070_m32            0.0000     1.6844E+03    13.4596   3.4235    81.5825
 32      0.0000     0.0000E+00    0.0000E+00    1.445000E+07  0.00040  7.027E-03    0   0.8578   age078_m32            0.0000     9.8340E+02    10.7670   2.8552    87.2926
 33      0.0000     0.0000E+00    0.0000E+00    2.512000E+07  0.00040  4.707E-03    0   0.8166   age090_m32            0.0000     5.5038E+02     8.3295   2.5136    91.8662
 34      0.0000     0.0000E+00    0.0000E+00    4.000000E+07  0.00040  3.714E-03    0   0.7827   age104_m32            0.0000     3.1995E+02     5.9995   2.2632    96.1124
 35      0.0000     0.0000E+00    0.0000E+00    5.500000E+07  0.00040  2.982E-03    0   0.7593   age110_m32            0.0000     2.9304E+02     5.2877   2.1788    97.7539
 36      0.0000     0.0000E+00    0.0000E+00    1.015200E+08  0.00040  2.188E-03    0   0.7143   age116_m32            0.0000     5.9451E+02     5.2133   1.8225   103.9101
 37      0.0000     0.0000E+00    0.0000E+00    1.609000E+08  0.00040  1.690E-03    0   0.6856   age120_m32            0.0000     1.0375E+03     6.9944   1.5690   107.5877
 38      0.0000     0.0000E+00    0.0000E+00    2.861200E+08  0.00040  1.152E-03    0   0.6509   age125_m32            0.0000     1.4948E+03     8.9896   1.3036   110.2730
 39      0.0000     0.0000E+00    0.0000E+00    5.088000E+08  0.00040  7.331E-04    0   0.6182   age130_m32            0.0000     1.6829E+03     9.8259   1.1196   111.3198
 40      0.0000     0.0000E+00    0.0000E+00    9.047900E+08  0.00040  3.960E-04    0   0.5890   age135_m32            0.0000     7.7185E+02     6.8458   0.6956   108.6866
 41      0.2413     8.6714E-02    9.3764E-02    1.278050E+09  0.00040  2.854E-04    0   0.5687   age138_m32            0.0000     5.4680E+02     5.3973   0.4387   109.7723
 42      0.0000     0.0000E+00    0.0000E+00    1.434000E+09  0.00040  2.531E-04    0   0.5632   age139_m32            0.0000     5.2644E+02     5.2868   0.3805   109.6792
 43     11.0688     7.6301E+00    7.8138E+00    2.500000E+09  0.00040  1.488E-04    0   0.5386   age150_m32            0.0000     2.8835E+02     3.9475   0.1375   107.5265
 44     50.3885     5.6909E+01    5.6256E+01    4.250000E+09  0.00040  9.082E-05    0   0.5199   age158_m32            0.0000     2.0172E+01     1.1603   0.0870   102.8904
 45      0.1491     2.4033E-01    2.3195E-01    6.250000E+09  0.00040  6.362E-05    0   0.5076   age166_m32            0.0000     6.8399E+01     2.4265   0.0933    98.3599
 46      0.2676     5.1893E-01    4.9600E-01    7.500000E+09  0.00040  5.289E-05    0   0.5027   age171_m32            0.0000     9.9521E+01     2.7700   0.0609    96.9680
 47      1.9301     4.9844E+00    4.6893E+00    1.000000E+10  0.00040  3.972E-05    0   0.4948   age181_m32            0.0000     1.2228E+02     2.8609  -0.0038    95.6041
 48      0.2646     8.2657E-01    7.6537E-01    1.300000E+10  0.00040  3.283E-05    0   0.4870   age193_m32            0.0000     2.9322E+01     1.4914  -0.0728    98.8064
 49      0.0000     0.0000E+00    0.0000E+00    1.500000E+10  0.00040  2.925E-05    0   0.4854   age201_m32            0.0000     9.4648E+00     0.9864  -0.1054   100.6912
 50      0.0000     0.0000E+00    0.0000E+00    1.800000E+10  0.00040  2.469E-05    0   0.4819   age213_m32            0.0000     9.4184E+00     0.9812  -0.1536   101.3311
 51      0.0000     0.0000E+00    0.0000E+00    1.000000E+06  0.00400  1.114E-02    0   1.0000   age020_m42            0.0000     2.2971E+03    15.2703   3.6364    76.2863
 52      0.0000     0.0000E+00    0.0000E+00    3.160000E+06  0.00400  4.073E-02    0   0.9999   age045_m42            0.0000     4.8352E+02     7.4576   2.5484    92.0590
 53      0.0000     0.0000E+00    0.0000E+00    5.010000E+06  0.00400  2.534E-02    0   0.9488   age055_m42            0.0000     1.1914E+03    11.4056   3.0156    84.7576
 54      0.0000     0.0000E+00    0.0000E+00    6.610000E+06  0.00400  2.583E-02    0   0.9220   age061_m42            0.0000     3.7076E+02     6.6253   2.3392    93.2307
 55      0.0000     0.0000E+00    0.0000E+00    8.710000E+06  0.00400  1.706E-02    0   0.8983   age067_m42            0.0000     6.7770E+02     9.0426   2.2039    90.3726
 56      0.0000     0.0000E+00    0.0000E+00    1.000000E+07  0.00400  1.271E-02    0   0.8862   age070_m42            0.0000     9.9419E+02    10.9128   2.2158    88.3125
 57      0.0000     0.0000E+00    0.0000E+00    1.445000E+07  0.00400  7.666E-03    0   0.8571   age078_m42            0.0000     1.3486E+03    12.3016   2.6401    84.8340
 58      0.0000     0.0000E+00    0.0000E+00    2.512000E+07  0.00400  5.070E-03    0   0.8174   age090_m42            0.0000     8.4213E+02    10.0120   2.0687    90.0719
 59      0.0000     0.0000E+00    0.0000E+00    4.000000E+07  0.00400  3.505E-03    0   0.7851   age104_m42            0.0000     4.9570E+02     7.4927   1.7110    93.5471
 60      0.0000     0.0000E+00    0.0000E+00    5.500000E+07  0.00400  3.059E-03    0   0.7629   age110_m42            0.0000     2.0887E+02     3.9899   1.6791   100.0771
 61      0.0000     0.0000E+00    0.0000E+00    1.015200E+08  0.00400  2.268E-03    0   0.7207   age116_m42            0.0000     8.6060E+02     6.4367   1.4767   107.9282
 62      0.0000     0.0000E+00    0.0000E+00    1.609000E+08  0.00400  1.720E-03    0   0.6930   age120_m42            0.0000     9.8909E+02     7.2242   1.3155   110.0139
 63      0.0000     0.0000E+00    0.0000E+00    2.861200E+08  0.00400  1.079E-03    0   0.6613   age125_m42            0.0000     1.0339E+03     7.8407   0.9601   110.2794
 64      0.0000     0.0000E+00    0.0000E+00    5.088000E+08  0.00400  6.261E-04    0   0.6313   age130_m42            0.0000     1.2869E+03     8.6127   0.7587   113.3464
 65      0.0000     0.0000E+00    0.0000E+00    9.047900E+08  0.00400  3.535E-04    0   0.6024   age135_m42            0.0000     6.3815E+02     6.4325   0.3864   112.4613
 66      0.0000     0.0000E+00    0.0000E+00    1.278050E+09  0.00400  2.677E-04    0   0.5837   age138_m42            0.0000     2.6765E+02     5.4587  -0.2935   108.1978
 67      0.0000     0.0000E+00    0.0000E+00    1.434000E+09  0.00400  1.910E-04    0   0.5716   age139_m42            0.0000     2.7500E+02     5.3210  -0.1346   109.7009
 68     13.4727     1.4076E+01    1.4620E+01    2.500000E+09  0.00400  9.818E-05    0   0.5463   age150_m42            0.0000     2.1044E+02     4.6395  -0.3597   103.2832
 69      0.0000     0.0000E+00    0.0000E+00    4.250000E+09  0.00400  5.491E-05    0   0.5269   age158_m42            0.0000     3.3396E+02     5.0378  -0.4551    99.6767
 70      0.0000     0.0000E+00    0.0000E+00    6.250000E+09  0.00400  3.857E-05    0   0.5151   age166_m42            0.0000     4.8920E+02     5.9186  -0.5824    98.0290
 71      0.0000     0.0000E+00    0.0000E+00    7.500000E+09  0.00400  3.243E-05    0   0.5110   age171_m42            0.0000     5.9162E+02     6.4810  -0.6642    97.3490
 72      0.0000     0.0000E+00    0.0000E+00    1.000000E+10  0.00400  2.424E-05    0   0.5028   age181_m42            0.0000     7.4676E+02     7.2297  -0.7453    96.5437
 73      0.0000     0.0000E+00    0.0000E+00    1.300000E+10  0.00400  1.883E-05    0   0.4927   age193_m42            0.0000     8.8137E+02     7.7839  -0.7826    96.0520
 74      0.0000     0.0000E+00    0.0000E+00    1.500000E+10  0.00400  1.685E-05    0   0.4919   age201_m42            0.0000     8.4670E+02     7.6044  -0.7771    96.0888
 75      0.0000     0.0000E+00    0.0000E+00    1.800000E+10  0.00400  1.452E-05    0   0.4874   age213_m42            0.0000     7.8282E+02     7.2879  -0.7604    96.3825
 76      0.0000     0.0000E+00    0.0000E+00    1.000000E+06  0.00800  1.286E-02    0   1.0000   age020_m52            0.0000     2.0280E+03    14.3406   3.6053    78.2153
 77      0.0000     0.0000E+00    0.0000E+00    3.160000E+06  0.00800  3.147E-02    0   0.9966   age045_m52            0.0000     1.9409E+03    14.1027   3.5085    79.7809
 78      0.0000     0.0000E+00    0.0000E+00    5.010000E+06  0.00800  2.664E-02    0   0.9443   age055_m52            0.0000     1.4022E+03    12.0859   3.1467    83.5477
 79      0.0000     0.0000E+00    0.0000E+00    6.610000E+06  0.00800  2.151E-02    0   0.9177   age061_m52            0.0000     8.7910E+02     9.3844   1.7974    89.8659
 80      0.0000     0.0000E+00    0.0000E+00    8.710000E+06  0.00800  1.628E-02    0   0.8948   age067_m52            0.0000     8.0004E+02     9.5376   2.1610    90.5816
 81      0.0000     0.0000E+00    0.0000E+00    1.000000E+07  0.00800  1.215E-02    0   0.8827   age070_m52            0.0000     1.0037E+03    10.6897   2.5159    88.5880
 82      0.0000     0.0000E+00    0.0000E+00    1.445000E+07  0.00800  8.739E-03    0   0.8552   age078_m52            0.0000     7.8990E+02     9.5624   2.5374    90.3253
 83      0.0000     0.0000E+00    0.0000E+00    2.512000E+07  0.00800  5.676E-03    0   0.8162   age090_m52            0.0000     4.6469E+02     7.3604   2.0851    95.9747
 84      0.0000     0.0000E+00    0.0000E+00    4.000000E+07  0.00800  3.939E-03    0   0.7841   age104_m52            0.0000     3.3773E+02     5.6123   1.8855    99.3196
 85      0.0000     0.0000E+00    0.0000E+00    5.500000E+07  0.00800  3.155E-03    0   0.7627   age110_m52            0.0000     3.4291E+02     4.6338   1.8206   101.7985
 86      0.0000     0.0000E+00    0.0000E+00    1.015200E+08  0.00800  2.206E-03    0   0.7226   age116_m52            0.0000     5.8567E+02     5.0575   1.5645   107.0456
 87      0.0000     0.0000E+00    0.0000E+00    1.609000E+08  0.00800  1.596E-03    0   0.6963   age120_m52            0.0000     7.6947E+02     6.1759   1.3228   109.1812
 88      0.0000     0.0000E+00    0.0000E+00    2.861200E+08  0.00800  1.002E-03    0   0.6665   age125_m52            0.0000     1.3942E+03     9.3851   0.9609   113.1141
 89      0.0000     0.0000E+00    0.0000E+00    5.088000E+08  0.00800  5.759E-04    0   0.6377   age130_m52            0.0000     1.5435E+03    10.4658   0.5753   117.4770
 90      0.0000     0.0000E+00    0.0000E+00    9.047900E+08  0.00800  2.972E-04    0   0.6086   age135_m52            0.0000     7.3327E+02     8.1684   0.0569   115.1022
 91      0.0000     0.0000E+00    0.0000E+00    1.278050E+09  0.00800  2.242E-04    0   0.5907   age138_m52            0.0000     4.0580E+02     6.6236  -0.5075   111.5247
 92      0.0000     0.0000E+00    0.0000E+00    1.434000E+09  0.00800  1.645E-04    0   0.5787   age139_m52            0.0000     3.1597E+02     5.8425  -0.3426   110.7796
 93      0.0000     0.0000E+00    0.0000E+00    2.500000E+09  0.00800  7.723E-05    0   0.5519   age150_m52            0.0000     4.5778E+02     6.4730  -0.6498   105.7041
 94      0.0000     0.0000E+00    0.0000E+00    4.250000E+09  0.00800  4.151E-05    0   0.5320   age158_m52            0.0000     5.4742E+02     6.6573  -0.6982   102.5456
 95      0.0000     0.0000E+00    0.0000E+00    6.250000E+09  0.00800  3.010E-05    0   0.5197   age166_m52            0.0000     8.0513E+02     7.8732  -0.8959   100.8394
 96      0.0000     0.0000E+00    0.0000E+00    7.500000E+09  0.00800  2.467E-05    0   0.5139   age171_m52            0.0000     8.7616E+02     8.2043  -0.9412   100.4238
 97      0.0000     0.0000E+00    0.0000E+00    1.000000E+10  0.00800  1.862E-05    0   0.5054   age181_m52            0.0000     1.1121E+03     9.2047  -1.0000    98.7865
 98      0.0000     0.0000E+00    0.0000E+00    1.300000E+10  0.00800  1.433E-05    0   0.4988   age193_m52            0.0000     1.4641E+03    10.3642  -1.0000    97.6846
 99      0.0000     0.0000E+00    0.0000E+00    1.500000E+10  0.00800  1.244E-05    0   0.4936   age201_m52            0.0000     1.6145E+03    10.7887  -1.0000    97.5705
100      0.0000     0.0000E+00    0.0000E+00    1.800000E+10  0.00800  1.070E-05    0   0.4888   age213_m52            0.0000     1.7466E+03    11.1742  -1.0000    96.7714
101      0.0000     0.0000E+00    0.0000E+00    1.000000E+06  0.02000  1.989E-02    0   1.0000   age020_m62            0.0000     2.2942E+03    15.0763   3.5912    77.1301
102      0.0000     0.0000E+00    0.0000E+00    3.160000E+06  0.02000  3.772E-02    0   0.9858   age045_m62            0.0000     2.0793E+03    14.4885   3.4345    79.3952
103      0.0000     0.0000E+00    0.0000E+00    5.010000E+06  0.02000  3.227E-02    0   0.9342   age055_m62            0.0000     7.7869E+02     9.4856   2.8307    88.2981
104      0.0000     0.0000E+00    0.0000E+00    6.610000E+06  0.02000  2.387E-02    0   0.9090   age061_m62            0.0000     1.2331E+03    11.9242   2.6077    86.8618
105      0.0000     0.0000E+00    0.0000E+00    8.710000E+06  0.02000  1.102E-02    0   0.8861   age067_m62            0.0000     3.2193E+03    19.0173   2.2898    80.4619
106      0.0000     0.0000E+00    0.0000E+00    1.000000E+07  0.02000  1.011E-02    0   0.8751   age070_m62            0.0000     2.3084E+03    16.1403   2.2852    83.5449
107      0.0000     0.0000E+00    0.0000E+00    1.445000E+07  0.02000  7.331E-03    0   0.8472   age078_m62            0.0000     1.6784E+03    13.7279   2.2793    85.5950
108      0.0000     0.0000E+00    0.0000E+00    2.512000E+07  0.02000  4.206E-03    0   0.8099   age090_m62            0.0000     1.7352E+03    13.6791   2.1870    85.0210
109      0.0000     0.0000E+00    0.0000E+00    4.000000E+07  0.02000  3.373E-03    0   0.7799   age104_m62            0.0000     4.4956E+02     7.2332   1.8846    95.9171
110      0.0000     0.0000E+00    0.0000E+00    5.500000E+07  0.02000  2.747E-03    0   0.7595   age110_m62            0.0000     3.2094E+02     5.0274   1.7599   100.7040
111      0.0000     0.0000E+00    0.0000E+00    1.015200E+08  0.02000  1.878E-03    0   0.7221   age116_m62            0.0000     7.3176E+02     5.5654   1.5329   107.5998
112      0.0000     0.0000E+00    0.0000E+00    1.609000E+08  0.02000  1.378E-03    0   0.6978   age120_m62            0.0000     1.2146E+03     7.6968   1.3319   111.2757
113      0.0000     0.0000E+00    0.0000E+00    2.861200E+08  0.02000  8.869E-04    0   0.6700   age125_m62            0.0000     2.1357E+03    11.0179   0.8943   116.8827
114      0.0000     0.0000E+00    0.0000E+00    5.088000E+08  0.02000  4.834E-04    0   0.6430   age130_m62            0.0000     1.7687E+03    11.0819   0.4243   119.4198
115      0.0000     0.0000E+00    0.0000E+00    9.047900E+08  0.02000  2.312E-04    0   0.6152   age135_m62            0.0000     6.2978E+02     7.8203  -0.1444   117.0347
116      0.0000     0.0000E+00    0.0000E+00    1.278050E+09  0.02000  1.387E-04    0   0.5927   age138_m62            0.0000     3.0055E+02     5.7453  -0.4686   110.4923
117      0.0000     0.0000E+00    0.0000E+00    1.434000E+09  0.02000  1.168E-04    0   0.5865   age139_m62            0.0000     3.0330E+02     5.6596  -0.4807   108.4498
118      0.0000     0.0000E+00    0.0000E+00    2.500000E+09  0.02000  5.505E-05    0   0.5610   age150_m62            0.0000     6.2540E+02     7.3369  -0.8460   104.4936
119      0.0000     0.0000E+00    0.0000E+00    4.250000E+09  0.02000  3.070E-05    0   0.5407   age158_m62            0.0000     1.1873E+03     9.7081  -1.0000   101.7207
120      0.0000     0.0000E+00    0.0000E+00    6.250000E+09  0.02000  2.104E-05    0   0.5277   age166_m62            0.0000     1.6940E+03    11.2179  -1.0000    99.6739
121      0.0000     0.0000E+00    0.0000E+00    7.500000E+09  0.02000  1.770E-05    0   0.5223   age171_m62            0.0000     2.0526E+03    12.5067  -1.0000    98.3361
122      0.0000     0.0000E+00    0.0000E+00    1.000000E+10  0.02000  1.297E-05    0   0.5121   age181_m62            0.0000     2.8991E+03    15.2746  -1.0000    95.5577
123      0.0000     0.0000E+00    0.0000E+00    1.300000E+10  0.02000  9.691E-06    0   0.5047   age193_m62            0.0000     3.4803E+03    16.8515  -1.0000    94.0859
124      0.0000     0.0000E+00    0.0000E+00    1.500000E+10  0.02000  8.360E-06    0   0.4999   age201_m62            0.0000     4.0087E+03    18.1833  -1.0000    92.7442
125      0.0000     0.0000E+00    0.0000E+00    1.800000E+10  0.02000  6.911E-06    0   0.4946   age213_m62            0.0000     4.6436E+03    19.6262  -1.0000    91.2928
126      0.0000     0.0000E+00    0.0000E+00    1.000000E+06  0.05000  2.651E-02    0   0.9998   age020_m72            0.0000     2.1613E+03    14.4571   3.5875    78.0969
127      0.0000     0.0000E+00    0.0000E+00    3.160000E+06  0.05000  4.817E-02    0   0.9577   age045_m72            0.0000     1.4728E+03    12.2393   3.2585    83.1219
128      0.0000     0.0000E+00    0.0000E+00    5.010000E+06  0.05000  3.101E-02    0   0.9147   age055_m72            0.0000     1.3619E+03    11.9578   2.8891    85.7301
129      0.0000     0.0000E+00    0.0000E+00    6.610000E+06  0.05000  1.472E-02    0   0.8877   age061_m72            0.0000     2.6634E+03    16.7813   2.4871    82.4843
130      0.0000     0.0000E+00    0.0000E+00    8.710000E+06  0.05000  1.050E-02    0   0.8638   age067_m72            0.0000     1.9205E+03    14.0451   2.8603    83.7283
131      0.0000     0.0000E+00    0.0000E+00    1.000000E+07  0.05000  8.954E-03    0   0.8524   age070_m72            0.0000     1.4484E+03    11.9410   3.1237    84.4034
132      0.0000     0.0000E+00    0.0000E+00    1.445000E+07  0.05000  6.392E-03    0   0.8262   age078_m72            0.0000     1.2329E+03    11.0157   3.0540    85.6978
133      0.0000     0.0000E+00    0.0000E+00    2.512000E+07  0.05000  4.207E-03    0   0.7902   age090_m72            0.0000     6.7571E+02     8.4271   2.6164    91.0354
134      0.0000     0.0000E+00    0.0000E+00    4.000000E+07  0.05000  3.198E-03    0   0.7618   age104_m72            0.0000     3.9166E+02     4.2890   1.9513   101.9825
135      0.0000     0.0000E+00    0.0000E+00    5.500000E+07  0.05000  2.593E-03    0   0.7432   age110_m72            0.0000     5.4998E+02     4.8108   1.8271   104.6384
136      0.0000     0.0000E+00    0.0000E+00    1.015200E+08  0.05000  1.716E-03    0   0.7092   age116_m72            0.0000     9.4486E+02     6.4407   1.5905   108.4176
137      0.0000     0.0000E+00    0.0000E+00    1.609000E+08  0.05000  1.218E-03    0   0.6876   age120_m72            0.0000     1.4941E+03     8.7842   1.2726   112.2520
138      0.0000     0.0000E+00    0.0000E+00    2.861200E+08  0.05000  7.047E-04    0   0.6618   age125_m72            0.0000     2.0002E+03    11.2919   0.6495   117.6196
139      0.0000     0.0000E+00    0.0000E+00    5.088000E+08  0.05000  3.590E-04    0   0.6356   age130_m72            0.0000     1.3962E+03    10.5205   0.0374   120.5129
140      0.0000     0.0000E+00    0.0000E+00    9.047900E+08  0.05000  1.484E-04    0   0.6088   age135_m72            0.0000     5.0240E+02     7.4629  -0.6157   110.7113
141      6.1591     6.6959E+00    7.5419E+00    1.278050E+09  0.05000  9.435E-05    0   0.5924   age138_m72            0.0000     8.1776E+02     8.8850  -1.0000   106.4249
142      0.5952     7.8002E-01    8.6717E-01    1.434000E+09  0.05000  7.827E-05    0   0.5847   age139_m72            0.0000     8.3439E+02     8.7622  -0.9907   105.7412
143      0.0000     0.0000E+00    0.0000E+00    2.500000E+09  0.05000  3.759E-05    0   0.5583   age150_m72            0.0000     1.6301E+03    11.1622  -1.0000    99.2017
144      0.0000     0.0000E+00    0.0000E+00    4.250000E+09  0.05000  1.842E-05    0   0.5374   age158_m72            0.0000     3.0539E+03    16.0051  -1.0000    92.5203
145      0.0000     0.0000E+00    0.0000E+00    6.250000E+09  0.05000  1.207E-05    0   0.5242   age166_m72            0.0000     4.7004E+03    20.0232  -1.0000    87.1063
146      0.0000     0.0000E+00    0.0000E+00    7.500000E+09  0.05000  9.993E-06    0   0.5183   age171_m72            0.0000     5.0186E+03    20.6983  -1.0000    86.0958
147      0.0000     0.0000E+00    0.0000E+00    1.000000E+10  0.05000  7.291E-06    0   0.5081   age181_m72            0.0000     6.1523E+03    22.8267  -1.0000    83.1847
148      0.0000     0.0000E+00    0.0000E+00    1.300000E+10  0.05000  5.316E-06    0   0.5018   age193_m72            0.0000     8.0197E+03    25.7355  -1.0000    78.8047
149      0.0000     0.0000E+00    0.0000E+00    1.500000E+10  0.05000  4.497E-06    0   0.4972   age201_m72            0.0000     8.8743E+03    26.8915  -1.0000    77.2442
150      0.0000     0.0000E+00    0.0000E+00    1.800000E+10  0.05000  3.739E-06    0   0.4924   age213_m72            0.0000     1.0081E+04    28.4024  -1.0000    74.8608


## Synthesis Results - Average & Chains ##

# j      x_j: min, <> & last-chain-values for 1 ...  7 chains
  1      0.0000      0.0020      0.0000      0.0000      0.0060      0.0000      0.0000      0.0000      0.0000
  2     15.4055     14.0314     14.2947     14.3269     14.7201     14.1381     14.4716     14.5192     14.1219
  3      0.0000      0.0044      0.0000      0.0000      0.0000      0.0000      0.0000      0.0000      0.0000
  4      0.0000      0.0013      0.0000      0.0000      0.0000      0.0099      0.0000      0.0000      0.0000
  5      0.0000      0.0011      0.0000      0.0000      0.0000      0.0000      0.0000      0.0000      0.0000
  6      0.0000      0.0019      0.0000      0.0057      0.0000      0.0000      0.0000      0.0000      0.0000
  7      0.0000      0.0022      0.0000      0.0000      0.0000      0.0000      0.0000      0.0000      0.0000
  8      0.0000      0.0067      0.0000      0.0000      0.0000      0.0000      0.0000      0.0000      0.0000
  9      0.0000      0.0185      0.0035      0.0000      0.0000      0.0000      0.0000      0.0000      0.0000
 10      0.0000      0.0265      0.1204      0.0000      0.0000      0.0000      0.0000      0.0000      0.0000
 11      0.0000      0.1056      0.0000      0.1857      0.3382      0.3161      0.0011      0.0000      0.0414
 12      0.0000      0.0298      0.0000      0.1175      0.0000      0.0000      0.0000      0.0000      0.0000
 13      0.0000      0.0523      0.0000      0.0212      0.1820      0.1113      0.0000      0.0270      0.0833
 14      0.0000      0.0279      0.0000      0.0000      0.0172      0.0911      0.0000      0.1337      0.0624
 15      0.0000      0.0263      0.0000      0.0000      0.0000      0.0000      0.0000      0.0109      0.0615
 16      0.0000      0.0504      0.0000      0.0000      0.0000      0.0562      0.0187      0.0000      0.0000
 17      0.0000      0.0643      0.0000      0.0000      0.0439      0.0000      0.0000      0.0164      0.0265
 18      0.0000      0.0675      0.0000      0.0000      0.0000      0.1704      0.0000      0.0000      0.0000
 19      0.0000      0.1160      0.0603      0.0000      0.0000      0.0252      0.0000      0.0000      0.2548
 20      0.0000      0.2068      0.0316      0.2988      0.0000      0.2194      0.0000      0.0000      0.0098
 21      0.0281      0.1956      0.0000      0.0000      0.0071      0.0597      0.4057      0.1356      0.2096
 22      0.2877      0.1984      0.1428      0.3646      0.5896      0.0000      0.5063      0.1998      0.4225
 23      0.5285      0.2197      0.3048      0.2937      0.0000      0.4776      0.3218      0.3348      0.2697
 24      1.4669      0.3170      0.0000      0.0000      0.0000      0.0000      0.4564      0.4410      0.3074
 25      0.0000      0.2483      0.1886      0.7419      0.7175      0.0000      0.1867      0.0000      0.1280
 26      0.0000      0.0016      0.0000      0.0000      0.0000      0.0000      0.0000      0.0000      0.0000
 27      0.0000      0.0073      0.0000      0.0000      0.0035      0.0000      0.0000      0.0000      0.0000
 28      0.0000      0.0021      0.0000      0.0060      0.0000      0.0000      0.0000      0.0000      0.0000
 29      0.0000      0.0033      0.0000      0.0000      0.0000      0.0000      0.0000      0.0000      0.0000
 30      0.0000      0.0015      0.0000      0.0009      0.0000      0.0000      0.0000      0.0122      0.0000
 31      0.0000      0.0026      0.0000      0.0000      0.0000      0.0000      0.0000      0.0000      0.0000
 32      0.0000      0.0064      0.0411      0.0000      0.0000      0.0201      0.0000      0.0000      0.0000
 33      0.0000      0.0060      0.0000      0.0461      0.0000      0.0000      0.0000      0.0000      0.0000
 34      0.0000      0.0191      0.0000      0.1333      0.0042      0.0000      0.0533      0.0000      0.0000
 35      0.0000      0.0230      0.0000      0.0000      0.0000      0.0615      0.0000      0.0890      0.1352
 36      0.0000      0.0907      0.3861      0.1057      0.0000      0.0000      0.3050      0.3037      0.3381
 37      0.0000      0.0734      0.0000      0.0000      0.0000      0.3637      0.0000      0.0799      0.1337
 38      0.0000      0.0419      0.0372      0.0000      0.0243      0.1877      0.0000      0.0000      0.0000
 39      0.0000      0.0414      0.2336      0.0421      0.2110      0.0000      0.0000      0.0441      0.0000
 40      0.0000      0.0465      0.0750      0.2365      0.0000      0.0297      0.0596      0.0000      0.0075
 41      0.2413      0.1063      0.2415      0.0000      0.0000      0.0000      0.4276      0.0000      0.0000
 42      0.0000      0.0802      0.0000      0.0384      0.0000      0.2906      0.0000      0.1027      0.0158
 43     11.0688      9.1076      9.1377      9.1610      9.0852      9.3992      9.0156      9.5863      9.3073
 44     50.3885     51.4011     51.5363     52.4697     51.5552     51.6756     51.3887     52.1791     51.8876
 45      0.1491      0.2985      0.4544      0.0239      0.5095      0.1977      0.4921      0.0000      0.0256
 46      0.2676      0.2372      0.2938      0.0238      0.1201      0.4356      0.3419      0.0000      0.0000
 47      1.9301      2.8047      2.5730      2.4096      2.7004      3.1958      2.5763      2.8810      2.8767
 48      0.2646      0.2011      0.4218      0.0798      0.0000      0.0000      0.3767      0.1304      0.6704
 49      0.0000      0.1956      0.3557      0.3727      0.0000      0.4166      0.0580      0.0000      0.2589
 50      0.0000      0.1271      0.1330      0.0000      0.4131      0.1054      0.0450      0.0000      0.0000
 51      0.0000      0.0030      0.0000      0.0000      0.0000      0.0000      0.0000      0.0000      0.0000
 52      0.0000      0.0189      0.1705      0.0000      0.0000      0.0021      0.0000      0.0000      0.0000
 53      0.0000      0.0038      0.0000      0.0000      0.0000      0.0203      0.0000      0.0000      0.0000
 54      0.0000      0.0298      0.0207      0.0000      0.0000      0.0994      0.0000      0.0000      0.0969
 55      0.0000      0.0271      0.0255      0.0252      0.0000      0.0000      0.0000      0.0000      0.0131
 56      0.0000      0.0120      0.0000      0.0000      0.0000      0.0000      0.0000      0.0000      0.0000
 57      0.0000      0.0063      0.0000      0.0000      0.0000      0.0000      0.0000      0.0207      0.0000
 58      0.0000      0.0099      0.0000      0.0000      0.0000      0.0000      0.0000      0.0000      0.0000
 59      0.0000      0.0135      0.0000      0.0000      0.0279      0.0000      0.0000      0.0000      0.0000
 60      0.0000      0.0202      0.0000      0.0000      0.0000      0.0000      0.0000      0.0000      0.0000
 61      0.0000      0.0577      0.1081      0.0606      0.0000      0.0749      0.1024      0.0000      0.0570
 62      0.0000      0.0447      0.3115      0.0000      0.0000      0.0000      0.0000      0.0000      0.0000
 63      0.0000      0.0394      0.0000      0.0000      0.0274      0.0000      0.1353      0.0000      0.0000
 64      0.0000      0.0302      0.0000      0.0000      0.0985      0.0000      0.0369      0.0000      0.0000
 65      0.0000      0.0582      0.0000      0.0746      0.0000      0.0142      0.0412      0.0491      0.0464
 66      0.0000      0.0485      0.0000      0.0000      0.0000      0.0000      0.0000      0.0000      0.0106
 67      0.0000      0.0972      0.0000      0.0598      0.0848      0.0430      0.0000      0.3456      0.0410
 68     13.4727     13.2676     13.1990     13.4482     13.3271     13.1065     13.2343     13.7351     13.4038
 69      0.0000      0.0475      0.0000      0.0000      0.0117      0.0736      0.0000      0.0000      0.0657
 70      0.0000      0.0624      0.0000      0.0152      0.0000      0.0476      0.0000      0.1775      0.0000
 71      0.0000      0.1403      0.0875      0.2431      0.3224      0.0000      0.0000      0.0000      0.1170
 72      0.0000      0.0498      0.0000      0.0000      0.0000      0.0273      0.0000      0.0000      0.0000
 73      0.0000      0.0274      0.0000      0.0000      0.0000      0.0000      0.0907      0.0035      0.0000
 74      0.0000      0.0409      0.0000      0.0000      0.0000      0.0181      0.0000      0.0426      0.0000
 75      0.0000      0.0284      0.0000      0.0000      0.0000      0.0000      0.0000      0.0685      0.0765
 76      0.0000      0.0017      0.0000      0.0000      0.0000      0.0000      0.0000      0.0000      0.0000
 77      0.0000      0.0013      0.0000      0.0000      0.0000      0.0000      0.0000      0.0000      0.0000
 78      0.0000      0.0042      0.0000      0.0000      0.0000      0.0000      0.0000      0.0000      0.0000
 79      0.0000      0.0108      0.0000      0.0000      0.0671      0.0057      0.0000      0.0000      0.0000
 80      0.0000      0.0101      0.0000      0.0000      0.0000      0.0000      0.0000      0.0000      0.0000
 81      0.0000      0.0065      0.0000      0.0000      0.0000      0.0000      0.0023      0.0000      0.0000
 82      0.0000      0.0055      0.0000      0.0130      0.0000      0.0000      0.0000      0.0000      0.0000
 83      0.0000      0.0290      0.0094      0.0000      0.0000      0.0000      0.0000      0.0000      0.0000
 84      0.0000      0.0196      0.0000      0.0000      0.0000      0.0000      0.0000      0.1817      0.0379
 85      0.0000      0.0167      0.0557      0.0000      0.0000      0.0000      0.0000      0.0000      0.0000
 86      0.0000      0.0425      0.0000      0.0000      0.0745      0.0000      0.0452      0.0000      0.0000
 87      0.0000      0.0473      0.0000      0.0227      0.0139      0.0000      0.0000      0.0000      0.0000
 88      0.0000      0.0344      0.0000      0.0000      0.0829      0.0000      0.1379      0.0000      0.0000
 89      0.0000      0.0317      0.0798      0.0000      0.2298      0.0000      0.0000      0.0008      0.0000
 90      0.0000      0.0270      0.0000      0.0000      0.0000      0.0000      0.0676      0.0000      0.0000
 91      0.0000      0.0315      0.0000      0.0000      0.0837      0.0000      0.0000      0.0000      0.0000
 92      0.0000      0.0525      0.0000      0.1560      0.0000      0.0000      0.0000      0.0000      0.0000
 93      0.0000      0.1086      0.3944      0.1331      0.0000      0.4384      0.1900      0.2089      0.2913
 94      0.0000      0.0723      0.0000      0.0000      0.0685      0.0000      0.0440      0.1472      0.0000
 95      0.0000      0.0749      0.0000      0.1181      0.2026      0.0000      0.0569      0.1756      0.3346
 96      0.0000      0.0526      0.3942      0.0000      0.1391      0.0000      0.0588      0.0000      0.0000
 97      0.0000      0.0488      0.2609      0.0000      0.0000      0.0782      0.0307      0.0000      0.0541
 98      0.0000      0.0550      0.0000      0.0000      0.0000      0.3311      0.0000      0.0000      0.0490
 99      0.0000      0.0214      0.0000      0.0000      0.0000      0.0000      0.0000      0.0040      0.0000
100      0.0000      0.0527      0.1758      0.0000      0.0000      0.1591      0.0000      0.0000      0.0000
101      0.0000      0.0025      0.0000      0.0000      0.0000      0.0000      0.0000      0.0000      0.0000
102      0.0000      0.0015      0.0000      0.0000      0.0000      0.0000      0.0000      0.0000      0.0000
103      0.0000      0.0069      0.0000      0.0059      0.0000      0.0000      0.0000      0.0000      0.0000
104      0.0000      0.0052      0.0000      0.0000      0.0000      0.0000      0.0000      0.0000      0.0000
105      0.0000      0.0021      0.0000      0.0000      0.0000      0.0000      0.0000      0.0000      0.0000
106      0.0000      0.0024      0.0000      0.0000      0.0000      0.0000      0.0000      0.0000      0.0000
107      0.0000      0.0039      0.0135      0.0000      0.0000      0.0000      0.0000      0.0000      0.0000
108      0.0000      0.0042      0.0149      0.0000      0.0000      0.0000      0.0000      0.0000      0.0000
109      0.0000      0.0088      0.0000      0.0000      0.0000      0.0000      0.0000      0.0000      0.0000
110      0.0000      0.0161      0.0000      0.0000      0.0000      0.0000      0.0000      0.0000      0.0000
111      0.0000      0.0168      0.0000      0.0000      0.0000      0.0000      0.0000      0.0000      0.0000
112      0.0000      0.0200      0.0000      0.0000      0.0470      0.0000      0.0000      0.0000      0.0000
113      0.0000      0.0232      0.0000      0.0000      0.0000      0.0000      0.1077      0.0000      0.0312
114      0.0000      0.0261      0.0000      0.0000      0.0000      0.0000      0.0065      0.0000      0.0000
115      0.0000      0.0545      0.0000      0.0000      0.0000      0.0000      0.0000      0.0000      0.0000
116      0.0000      0.0537      0.0350      0.0000      0.0217      0.0000      0.0000      0.0000      0.0000
117      0.0000      0.0680      0.0000      0.0748      0.0447      0.0200      0.0000      0.0000      0.1689
118      0.0000      0.0468      0.0000      0.0000      0.0000      0.0082      0.0000      0.0000      0.0679
119      0.0000      0.0292      0.0000      0.0000      0.0857      0.2156      0.0000      0.0125      0.0000
120      0.0000      0.0217      0.0018      0.0000      0.0000      0.0000      0.0000      0.0000      0.0087
121      0.0000      0.0171      0.0000      0.0000      0.0000      0.0000      0.0145      0.0000      0.0000
122      0.0000      0.0107      0.0000      0.0000      0.0000      0.0024      0.0175      0.0262      0.0000
123      0.0000      0.0078      0.0000      0.0000      0.0000      0.0000      0.0000      0.0000      0.0000
124      0.0000      0.0093      0.0000      0.0000      0.0256      0.0000      0.0000      0.0000      0.0000
125      0.0000      0.0123      0.0000      0.0000      0.0000      0.0000      0.0000      0.0000      0.0000
126      0.0000      0.0015      0.0000      0.0000      0.0000      0.0000      0.0000      0.0000      0.0000
127      0.0000      0.0029      0.0000      0.0000      0.0000      0.0000      0.0000      0.0014      0.0000
128      0.0000      0.0053      0.0000      0.0000      0.0000      0.0000      0.0000      0.0000      0.0000
129      0.0000      0.0018      0.0000      0.0000      0.0000      0.0000      0.0000      0.0000      0.0000
130      0.0000      0.0020      0.0000      0.0000      0.0000      0.0000      0.0000      0.0000      0.0000
131      0.0000      0.0027      0.0000      0.0000      0.0000      0.0000      0.0000      0.0000      0.0000
132      0.0000      0.0030      0.0000      0.0000      0.0028      0.0000      0.0000      0.0000      0.0000
133      0.0000      0.0038      0.0000      0.0000      0.0000      0.0000      0.0000      0.0000      0.0000
134      0.0000      0.0137      0.0000      0.0000      0.0000      0.0000      0.0871      0.0517      0.0066
135      0.0000      0.0173      0.0000      0.1795      0.0000      0.0000      0.0000      0.0513      0.0072
136      0.0000      0.0204      0.0000      0.0000      0.0000      0.0134      0.0000      0.0000      0.0000
137      0.0000      0.0313      0.0000      0.0043      0.0863      0.0274      0.0000      0.0000      0.0000
138      0.0000      0.0267      0.0000      0.0000      0.0141      0.0000      0.0000      0.0000      0.0000
139      0.0000      0.0767      0.2391      0.0000      0.0682      0.0004      0.0000      0.0000      0.0000
140      0.0000      0.0675      0.2234      0.0000      0.0919      0.0000      0.0000      0.0419      0.0796
141      6.1591      5.0469      4.9637      5.5123      5.3597      4.9552      5.7815      5.2375      5.0501
142      0.5952      0.3781      0.3310      0.5392      0.2640      0.3867      0.4490      0.3327      0.4379
143      0.0000      0.0250      0.0000      0.0000      0.0000      0.0000      0.0000      0.0000      0.0000
144      0.0000      0.0081      0.0000      0.0000      0.0000      0.0000      0.0000      0.0000      0.0000
145      0.0000      0.0066      0.0639      0.0000      0.0000      0.0113      0.0000      0.0000      0.0000
146      0.0000      0.0098      0.0000      0.0000      0.0000      0.0000      0.0000      0.0000      0.0000
147      0.0000      0.0079      0.0000      0.0000      0.0000      0.0000      0.0000      0.0768      0.0000
148      0.0000      0.0053      0.0000      0.0000      0.0000      0.0000      0.0000      0.0000      0.0000
149      0.0000      0.0039      0.0000      0.0000      0.0157      0.0000      0.0000      0.0000      0.0000
150      0.0000      0.0051      0.0000      0.0264      0.0000      0.0000      0.0000      0.0000      0.0000

# j      m_j: min, <> & last-chain-values for 1 ...  7 chains
  1  0.0000E+00  4.5358E-05  0.0000E+00  0.0000E+00  1.3937E-04  0.0000E+00  0.0000E+00  0.0000E+00  0.0000E+00
  2  6.3133E-02  5.5419E-02  5.6503E-02  5.7702E-02  5.8963E-02  5.5688E-02  5.8341E-02  5.8751E-02  5.6154E-02
  3  0.0000E+00  4.1252E-05  0.0000E+00  0.0000E+00  0.0000E+00  0.0000E+00  0.0000E+00  0.0000E+00  0.0000E+00
  4  0.0000E+00  2.3297E-05  0.0000E+00  0.0000E+00  0.0000E+00  1.7297E-04  0.0000E+00  0.0000E+00  0.0000E+00
  5  0.0000E+00  2.5228E-05  0.0000E+00  0.0000E+00  0.0000E+00  0.0000E+00  0.0000E+00  0.0000E+00  0.0000E+00
  6  0.0000E+00  4.9683E-05  0.0000E+00  1.5202E-04  0.0000E+00  0.0000E+00  0.0000E+00  0.0000E+00  0.0000E+00
  7  0.0000E+00  7.1402E-05  0.0000E+00  0.0000E+00  0.0000E+00  0.0000E+00  0.0000E+00  0.0000E+00  0.0000E+00
  8  0.0000E+00  2.5056E-04  0.0000E+00  0.0000E+00  0.0000E+00  0.0000E+00  0.0000E+00  0.0000E+00  0.0000E+00
  9  0.0000E+00  7.4477E-04  1.4039E-04  0.0000E+00  0.0000E+00  0.0000E+00  0.0000E+00  0.0000E+00  0.0000E+00
 10  0.0000E+00  1.2215E-03  5.5618E-03  0.0000E+00  0.0000E+00  0.0000E+00  0.0000E+00  0.0000E+00  0.0000E+00
 11  0.0000E+00  5.8285E-03  0.0000E+00  1.0451E-02  1.8928E-02  1.7398E-02  6.3487E-05  0.0000E+00  2.2986E-03
 12  0.0000E+00  2.8754E-03  0.0000E+00  1.1564E-02  0.0000E+00  0.0000E+00  0.0000E+00  0.0000E+00  0.0000E+00
 13  0.0000E+00  5.8677E-03  0.0000E+00  2.4252E-03  2.0689E-02  1.2448E-02  0.0000E+00  3.1007E-03  9.4066E-03
 14  0.0000E+00  4.4403E-03  0.0000E+00  0.0000E+00  2.7839E-03  1.4462E-02  0.0000E+00  2.1806E-02  9.9925E-03
 15  0.0000E+00  6.3243E-03  0.0000E+00  0.0000E+00  0.0000E+00  0.0000E+00  0.0000E+00  2.6830E-03  1.4873E-02
 16  0.0000E+00  1.7554E-02  0.0000E+00  0.0000E+00  0.0000E+00  1.9506E-02  6.6601E-03  0.0000E+00  0.0000E+00
 17  0.0000E+00  2.4853E-02  0.0000E+00  0.0000E+00  1.7184E-02  0.0000E+00  0.0000E+00  6.4893E-03  1.0296E-02
 18  0.0000E+00  4.2493E-02  0.0000E+00  0.0000E+00  0.0000E+00  1.0693E-01  0.0000E+00  0.0000E+00  0.0000E+00
 19  0.0000E+00  1.1069E-01  5.7592E-02  0.0000E+00  0.0000E+00  2.4005E-02  0.0000E+00  0.0000E+00  2.4468E-01
 20  0.0000E+00  2.8216E-01  4.3137E-02  4.1562E-01  0.0000E+00  2.9846E-01  0.0000E+00  0.0000E+00  1.3391E-02
 21  4.5975E-02  3.0875E-01  0.0000E+00  0.0000E+00  1.1292E-02  9.3974E-02  6.5359E-01  2.1932E-01  3.3299E-01
 22  6.0785E-01  4.0388E-01  2.9102E-01  7.5698E-01  1.2175E+00  0.0000E+00  1.0522E+00  4.1681E-01  8.6608E-01
 23  1.4153E+00  5.6717E-01  7.8733E-01  7.7304E-01  0.0000E+00  1.2295E+00  8.4784E-01  8.8522E-01  7.0071E-01
 24  4.4924E+00  9.3578E-01  0.0000E+00  0.0000E+00  0.0000E+00  0.0000E+00  1.3751E+00  1.3335E+00  9.1348E-01
 25  0.0000E+00  8.8052E-01  6.6916E-01  2.6824E+00  2.5803E+00  0.0000E+00  6.7581E-01  0.0000E+00  4.5710E-01
 26  0.0000E+00  3.5273E-05  0.0000E+00  0.0000E+00  0.0000E+00  0.0000E+00  0.0000E+00  0.0000E+00  0.0000E+00
 27  0.0000E+00  3.4688E-05  0.0000E+00  0.0000E+00  1.6988E-05  0.0000E+00  0.0000E+00  0.0000E+00  0.0000E+00
 28  0.0000E+00  1.9653E-05  0.0000E+00  5.6737E-05  0.0000E+00  0.0000E+00  0.0000E+00  0.0000E+00  0.0000E+00
 29  0.0000E+00  4.6941E-05  0.0000E+00  0.0000E+00  0.0000E+00  0.0000E+00  0.0000E+00  0.0000E+00  0.0000E+00
 30  0.0000E+00  2.6755E-05  0.0000E+00  1.7075E-05  0.0000E+00  0.0000E+00  0.0000E+00  2.2431E-04  0.0000E+00
 31  0.0000E+00  5.4044E-05  0.0000E+00  0.0000E+00  0.0000E+00  0.0000E+00  0.0000E+00  0.0000E+00  0.0000E+00
 32  0.0000E+00  1.4597E-04  9.4313E-04  0.0000E+00  0.0000E+00  4.5986E-04  0.0000E+00  0.0000E+00  0.0000E+00
 33  0.0000E+00  1.9682E-04  0.0000E+00  1.5329E-03  0.0000E+00  0.0000E+00  0.0000E+00  0.0000E+00  0.0000E+00
 34  0.0000E+00  7.5661E-04  0.0000E+00  5.3830E-03  1.6954E-04  0.0000E+00  2.1547E-03  0.0000E+00  0.0000E+00
 35  0.0000E+00  1.1019E-03  0.0000E+00  0.0000E+00  0.0000E+00  2.9359E-03  0.0000E+00  4.3638E-03  6.5129E-03
 36  0.0000E+00  5.5673E-03  2.3711E-02  6.6144E-03  0.0000E+00  0.0000E+00  1.9102E-02  1.9093E-02  2.0889E-02
 37  0.0000E+00  5.5937E-03  0.0000E+00  0.0000E+00  0.0000E+00  2.7659E-02  0.0000E+00  6.2416E-03  1.0261E-02
 38  0.0000E+00  4.4466E-03  3.9555E-03  0.0000E+00  2.6225E-03  1.9879E-02  0.0000E+00  0.0000E+00  0.0000E+00
 39  0.0000E+00  6.5604E-03  3.7060E-02  6.8113E-03  3.3923E-02  0.0000E+00  0.0000E+00  7.1535E-03  0.0000E+00
 40  0.0000E+00  1.3010E-02  2.0983E-02  6.7435E-02  0.0000E+00  8.2706E-03  1.7007E-02  0.0000E+00  2.1128E-03
 41  9.3764E-02  3.9795E-02  9.0534E-02  0.0000E+00  0.0000E+00  0.0000E+00  1.6346E-01  0.0000E+00  0.0000E+00
 42  0.0000E+00  3.3539E-02  0.0000E+00  1.6390E-02  0.0000E+00  1.2119E-01  0.0000E+00  4.4005E-02  6.6736E-03
 43  7.8138E+00  6.1964E+00  6.2218E+00  6.3556E+00  6.2688E+00  6.3774E+00  6.2609E+00  6.6820E+00  6.3752E+00
 44  5.6256E+01  5.5307E+01  5.5497E+01  5.7571E+01  5.6260E+01  5.5451E+01  5.6439E+01  5.7521E+01  5.6209E+01
 45  2.3195E-01  4.4771E-01  6.8198E-01  3.6573E-02  7.7489E-01  2.9572E-01  7.5330E-01  0.0000E+00  3.8669E-02
 46  4.9600E-01  4.2374E-01  5.2533E-01  4.3387E-02  2.1753E-01  7.7600E-01  6.2346E-01  0.0000E+00  0.0000E+00
 47  4.6893E+00  6.5672E+00  6.0294E+00  5.7534E+00  6.4127E+00  7.4626E+00  6.1573E+00  6.9113E+00  6.7813E+00
 48  7.6537E-01  5.6075E-01  1.1769E+00  2.2702E-01  0.0000E+00  0.0000E+00  1.0722E+00  3.7249E-01  1.8819E+00
 49  0.0000E+00  6.1024E-01  1.1103E+00  1.1856E+00  0.0000E+00  1.2959E+00  1.8464E-01  0.0000E+00  8.1312E-01
 50  0.0000E+00  4.6635E-01  4.8818E-01  0.0000E+00  1.5371E+00  3.8567E-01  1.6853E-01  0.0000E+00  0.0000E+00
 51  0.0000E+00  5.1307E-05  0.0000E+00  0.0000E+00  0.0000E+00  0.0000E+00  0.0000E+00  0.0000E+00  0.0000E+00
 52  0.0000E+00  8.7113E-05  7.8750E-04  0.0000E+00  0.0000E+00  9.5170E-06  0.0000E+00  0.0000E+00  0.0000E+00
 53  0.0000E+00  2.6586E-05  0.0000E+00  0.0000E+00  0.0000E+00  1.4234E-04  0.0000E+00  0.0000E+00  0.0000E+00
 54  0.0000E+00  1.9965E-04  1.3919E-04  0.0000E+00  0.0000E+00  6.6481E-04  0.0000E+00  0.0000E+00  6.5464E-04
 55  0.0000E+00  2.6794E-04  2.5228E-04  2.5427E-04  0.0000E+00  0.0000E+00  0.0000E+00  0.0000E+00  1.3096E-04
 56  0.0000E+00  1.5718E-04  0.0000E+00  0.0000E+00  0.0000E+00  0.0000E+00  0.0000E+00  0.0000E+00  0.0000E+00
 57  0.0000E+00  1.3150E-04  0.0000E+00  0.0000E+00  0.0000E+00  0.0000E+00  0.0000E+00  4.4554E-04  0.0000E+00
 58  0.0000E+00  3.0114E-04  0.0000E+00  0.0000E+00  0.0000E+00  0.0000E+00  0.0000E+00  0.0000E+00  0.0000E+00
 59  0.0000E+00  5.7037E-04  0.0000E+00  0.0000E+00  1.1903E-03  0.0000E+00  0.0000E+00  0.0000E+00  0.0000E+00
 60  0.0000E+00  9.4669E-04  0.0000E+00  0.0000E+00  0.0000E+00  0.0000E+00  0.0000E+00  0.0000E+00  0.0000E+00
 61  0.0000E+00  3.4453E-03  6.4642E-03  3.6902E-03  0.0000E+00  4.4598E-03  6.2413E-03  0.0000E+00  3.4285E-03
 62  0.0000E+00  3.3858E-03  2.3609E-02  0.0000E+00  0.0000E+00  0.0000E+00  0.0000E+00  0.0000E+00  0.0000E+00
 63  0.0000E+00  4.5359E-03  0.0000E+00  0.0000E+00  3.2001E-03  0.0000E+00  1.5908E-02  0.0000E+00  0.0000E+00
 64  0.0000E+00  5.7240E-03  0.0000E+00  0.0000E+00  1.8935E-02  0.0000E+00  7.1419E-03  0.0000E+00  0.0000E+00
 65  0.0000E+00  1.8649E-02  0.0000E+00  2.4381E-02  0.0000E+00  4.5468E-03  1.3478E-02  1.6112E-02  1.4976E-02
 66  0.0000E+00  1.9862E-02  0.0000E+00  0.0000E+00  0.0000E+00  0.0000E+00  0.0000E+00  0.0000E+00  4.3870E-03
 67  0.0000E+00  5.4681E-02  0.0000E+00  3.4326E-02  4.8404E-02  2.4119E-02  0.0000E+00  1.9918E-01  2.3202E-02
 68  1.4620E+01  1.3876E+01  1.3815E+01  1.4343E+01  1.4136E+01  1.3670E+01  1.4128E+01  1.4717E+01  1.4114E+01
 69  0.0000E+00  8.5629E-02  0.0000E+00  0.0000E+00  2.1394E-02  1.3233E-01  0.0000E+00  0.0000E+00  1.1928E-01
 70  0.0000E+00  1.5657E-01  0.0000E+00  3.8939E-02  0.0000E+00  1.1924E-01  0.0000E+00  4.5649E-01  0.0000E+00
 71  0.0000E+00  4.1540E-01  2.5938E-01  7.3422E-01  9.6848E-01  0.0000E+00  0.0000E+00  0.0000E+00  3.4902E-01
 72  0.0000E+00  1.9421E-01  0.0000E+00  0.0000E+00  0.0000E+00  1.0615E-01  0.0000E+00  0.0000E+00  0.0000E+00
 73  0.0000E+00  1.3481E-01  0.0000E+00  0.0000E+00  0.0000E+00  0.0000E+00  4.5551E-01  1.7599E-02  0.0000E+00
 74  0.0000E+00  2.2424E-01  0.0000E+00  0.0000E+00  0.0000E+00  9.9277E-02  0.0000E+00  2.3964E-01  0.0000E+00
 75  0.0000E+00  1.7937E-01  0.0000E+00  0.0000E+00  0.0000E+00  0.0000E+00  0.0000E+00  4.4264E-01  4.8593E-01
 76  0.0000E+00  2.5148E-05  0.0000E+00  0.0000E+00  0.0000E+00  0.0000E+00  0.0000E+00  0.0000E+00  0.0000E+00
 77  0.0000E+00  7.5511E-06  0.0000E+00  0.0000E+00  0.0000E+00  0.0000E+00  0.0000E+00  0.0000E+00  0.0000E+00
 78  0.0000E+00  2.8160E-05  0.0000E+00  0.0000E+00  0.0000E+00  0.0000E+00  0.0000E+00  0.0000E+00  0.0000E+00
 79  0.0000E+00  8.6419E-05  0.0000E+00  0.0000E+00  5.4542E-04  4.5377E-05  0.0000E+00  0.0000E+00  0.0000E+00
 80  0.0000E+00  1.0466E-04  0.0000E+00  0.0000E+00  0.0000E+00  0.0000E+00  0.0000E+00  0.0000E+00  0.0000E+00
 81  0.0000E+00  8.9044E-05  0.0000E+00  0.0000E+00  0.0000E+00  0.0000E+00  3.2668E-05  0.0000E+00  0.0000E+00
 82  0.0000E+00  1.0180E-04  0.0000E+00  2.4476E-04  0.0000E+00  0.0000E+00  0.0000E+00  0.0000E+00  0.0000E+00
 83  0.0000E+00  7.8312E-04  2.5531E-04  0.0000E+00  0.0000E+00  0.0000E+00  0.0000E+00  0.0000E+00  0.0000E+00
 84  0.0000E+00  7.3320E-04  0.0000E+00  0.0000E+00  0.0000E+00  0.0000E+00  0.0000E+00  6.9642E-03  1.4277E-03
 85  0.0000E+00  7.6090E-04  2.5336E-03  0.0000E+00  0.0000E+00  0.0000E+00  0.0000E+00  0.0000E+00  0.0000E+00
 86  0.0000E+00  2.6142E-03  0.0000E+00  0.0000E+00  4.6544E-03  0.0000E+00  2.8424E-03  0.0000E+00  0.0000E+00
 87  0.0000E+00  3.8747E-03  0.0000E+00  1.9006E-03  1.1584E-03  0.0000E+00  0.0000E+00  0.0000E+00  0.0000E+00
 88  0.0000E+00  4.3055E-03  0.0000E+00  0.0000E+00  1.0508E-02  0.0000E+00  1.7592E-02  0.0000E+00  0.0000E+00
 89  0.0000E+00  6.6013E-03  1.6626E-02  0.0000E+00  4.8501E-02  0.0000E+00  0.0000E+00  1.6365E-04  0.0000E+00
 90  0.0000E+00  1.0409E-02  0.0000E+00  0.0000E+00  0.0000E+00  0.0000E+00  2.6563E-02  0.0000E+00  0.0000E+00
 91  0.0000E+00  1.5607E-02  0.0000E+00  0.0000E+00  4.2036E-02  0.0000E+00  0.0000E+00  0.0000E+00  0.0000E+00
 92  0.0000E+00  3.4723E-02  0.0000E+00  1.0519E-01  0.0000E+00  0.0000E+00  0.0000E+00  0.0000E+00  0.0000E+00
 93  0.0000E+00  1.4589E-01  5.3014E-01  1.8232E-01  0.0000E+00  5.8732E-01  2.6047E-01  2.8741E-01  3.9393E-01
 94  0.0000E+00  1.7417E-01  0.0000E+00  0.0000E+00  1.6735E-01  0.0000E+00  1.0815E-01  3.6340E-01  0.0000E+00
 95  0.0000E+00  2.4314E-01  0.0000E+00  3.9088E-01  6.6680E-01  0.0000E+00  1.8835E-01  5.8394E-01  1.0934E+00
 96  0.0000E+00  2.0578E-01  1.5445E+00  0.0000E+00  5.5230E-01  0.0000E+00  2.3502E-01  0.0000E+00  0.0000E+00
 97  0.0000E+00  2.4904E-01  1.3320E+00  0.0000E+00  0.0000E+00  3.9784E-01  1.5971E-01  0.0000E+00  2.7773E-01
 98  0.0000E+00  3.5999E-01  0.0000E+00  0.0000E+00  0.0000E+00  2.1601E+00  0.0000E+00  0.0000E+00  3.2280E-01
 99  0.0000E+00  1.5971E-01  0.0000E+00  0.0000E+00  0.0000E+00  0.0000E+00  0.0000E+00  3.0409E-02  0.0000E+00
100  0.0000E+00  4.5243E-01  1.5104E+00  0.0000E+00  0.0000E+00  1.3621E+00  0.0000E+00  0.0000E+00  0.0000E+00
101  0.0000E+00  2.3402E-05  0.0000E+00  0.0000E+00  0.0000E+00  0.0000E+00  0.0000E+00  0.0000E+00  0.0000E+00
102  0.0000E+00  7.3251E-06  0.0000E+00  0.0000E+00  0.0000E+00  0.0000E+00  0.0000E+00  0.0000E+00  0.0000E+00
103  0.0000E+00  3.7441E-05  0.0000E+00  3.2790E-05  0.0000E+00  0.0000E+00  0.0000E+00  0.0000E+00  0.0000E+00
104  0.0000E+00  3.7171E-05  0.0000E+00  0.0000E+00  0.0000E+00  0.0000E+00  0.0000E+00  0.0000E+00  0.0000E+00
105  0.0000E+00  3.2388E-05  0.0000E+00  0.0000E+00  0.0000E+00  0.0000E+00  0.0000E+00  0.0000E+00  0.0000E+00
106  0.0000E+00  3.8698E-05  0.0000E+00  0.0000E+00  0.0000E+00  0.0000E+00  0.0000E+00  0.0000E+00  0.0000E+00
107  0.0000E+00  8.4490E-05  2.9447E-04  0.0000E+00  0.0000E+00  0.0000E+00  0.0000E+00  0.0000E+00  0.0000E+00
108  0.0000E+00  1.5379E-04  5.3884E-04  0.0000E+00  0.0000E+00  0.0000E+00  0.0000E+00  0.0000E+00  0.0000E+00
109  0.0000E+00  3.8355E-04  0.0000E+00  0.0000E+00  0.0000E+00  0.0000E+00  0.0000E+00  0.0000E+00  0.0000E+00
110  0.0000E+00  8.3902E-04  0.0000E+00  0.0000E+00  0.0000E+00  0.0000E+00  0.0000E+00  0.0000E+00  0.0000E+00
111  0.0000E+00  1.2151E-03  0.0000E+00  0.0000E+00  0.0000E+00  0.0000E+00  0.0000E+00  0.0000E+00  0.0000E+00
112  0.0000E+00  1.9006E-03  0.0000E+00  0.0000E+00  4.5325E-03  0.0000E+00  0.0000E+00  0.0000E+00  0.0000E+00
113  0.0000E+00  3.2971E-03  0.0000E+00  0.0000E+00  0.0000E+00  0.0000E+00  1.5612E-02  0.0000E+00  4.4612E-03
114  0.0000E+00  6.5368E-03  0.0000E+00  0.0000E+00  0.0000E+00  0.0000E+00  1.6678E-03  0.0000E+00  0.0000E+00
115  0.0000E+00  2.7280E-02  0.0000E+00  0.0000E+00  0.0000E+00  0.0000E+00  0.0000E+00  0.0000E+00  0.0000E+00
116  0.0000E+00  4.3153E-02  2.8173E-02  0.0000E+00  1.7661E-02  0.0000E+00  0.0000E+00  0.0000E+00  0.0000E+00
117  0.0000E+00  6.4133E-02  0.0000E+00  7.1950E-02  4.2741E-02  1.8814E-02  0.0000E+00  0.0000E+00  1.6048E-01
118  0.0000E+00  8.9610E-02  0.0000E+00  0.0000E+00  0.0000E+00  1.5696E-02  0.0000E+00  0.0000E+00  1.3096E-01
119  0.0000E+00  9.6587E-02  0.0000E+00  0.0000E+00  2.8757E-01  7.1173E-01  0.0000E+00  4.2419E-02  0.0000E+00
120  0.0000E+00  1.0207E-01  8.3417E-03  0.0000E+00  0.0000E+00  0.0000E+00  0.0000E+00  0.0000E+00  4.1329E-02
121  0.0000E+00  9.4989E-02  0.0000E+00  0.0000E+00  0.0000E+00  0.0000E+00  8.2028E-02  0.0000E+00  0.0000E+00
122  0.0000E+00  7.9363E-02  0.0000E+00  0.0000E+00  0.0000E+00  1.7774E-02  1.3283E-01  1.9954E-01  0.0000E+00
123  0.0000E+00  7.6702E-02  0.0000E+00  0.0000E+00  0.0000E+00  0.0000E+00  0.0000E+00  0.0000E+00  0.0000E+00
124  0.0000E+00  1.0445E-01  0.0000E+00  0.0000E+00  2.9205E-01  0.0000E+00  0.0000E+00  0.0000E+00  0.0000E+00
125  0.0000E+00  1.6546E-01  0.0000E+00  0.0000E+00  0.0000E+00  0.0000E+00  0.0000E+00  0.0000E+00  0.0000E+00
126  0.0000E+00  1.0737E-05  0.0000E+00  0.0000E+00  0.0000E+00  0.0000E+00  0.0000E+00  0.0000E+00  0.0000E+00
127  0.0000E+00  1.0964E-05  0.0000E+00  0.0000E+00  0.0000E+00  0.0000E+00  0.0000E+00  5.5463E-06  0.0000E+00
128  0.0000E+00  2.9321E-05  0.0000E+00  0.0000E+00  0.0000E+00  0.0000E+00  0.0000E+00  0.0000E+00  0.0000E+00
129  0.0000E+00  2.0958E-05  0.0000E+00  0.0000E+00  0.0000E+00  0.0000E+00  0.0000E+00  0.0000E+00  0.0000E+00
130  0.0000E+00  3.0347E-05  0.0000E+00  0.0000E+00  0.0000E+00  0.0000E+00  0.0000E+00  0.0000E+00  0.0000E+00
131  0.0000E+00  4.8738E-05  0.0000E+00  0.0000E+00  0.0000E+00  0.0000E+00  0.0000E+00  0.0000E+00  0.0000E+00
132  0.0000E+00  7.1838E-05  0.0000E+00  0.0000E+00  6.8671E-05  0.0000E+00  0.0000E+00  0.0000E+00  0.0000E+00
133  0.0000E+00  1.3472E-04  0.0000E+00  0.0000E+00  0.0000E+00  0.0000E+00  0.0000E+00  0.0000E+00  0.0000E+00
134  0.0000E+00  6.1134E-04  0.0000E+00  0.0000E+00  0.0000E+00  0.0000E+00  3.9814E-03  2.3738E-03  2.9642E-04
135  0.0000E+00  9.2996E-04  0.0000E+00  9.8595E-03  0.0000E+00  0.0000E+00  0.0000E+00  2.8333E-03  3.9297E-04
136  0.0000E+00  1.5875E-03  0.0000E+00  0.0000E+00  0.0000E+00  1.0395E-03  0.0000E+00  0.0000E+00  0.0000E+00
137  0.0000E+00  3.3254E-03  0.0000E+00  4.6141E-04  9.2924E-03  2.9013E-03  0.0000E+00  0.0000E+00  0.0000E+00
138  0.0000E+00  4.7215E-03  0.0000E+00  0.0000E+00  2.5271E-03  0.0000E+00  0.0000E+00  0.0000E+00  0.0000E+00
139  0.0000E+00  2.5517E-02  7.9619E-02  0.0000E+00  2.3008E-02  1.2279E-04  0.0000E+00  0.0000E+00  0.0000E+00
140  0.0000E+00  5.2058E-02  1.7240E-01  0.0000E+00  7.1862E-02  0.0000E+00  0.0000E+00  3.3092E-02  6.1775E-02
141  7.5419E+00  5.9561E+00  5.8626E+00  6.6337E+00  6.4151E+00  5.8321E+00  6.9645E+00  6.3327E+00  6.0004E+00
142  8.6717E-01  5.3092E-01  4.6520E-01  7.7209E-01  3.7596E-01  5.4153E-01  6.4348E-01  4.7857E-01  6.1907E-01
143  0.0000E+00  6.9731E-02  0.0000E+00  0.0000E+00  0.0000E+00  0.0000E+00  0.0000E+00  0.0000E+00  0.0000E+00
144  0.0000E+00  4.4478E-02  0.0000E+00  0.0000E+00  0.0000E+00  0.0000E+00  0.0000E+00  0.0000E+00  0.0000E+00
145  0.0000E+00  5.3841E-02  5.2223E-01  0.0000E+00  0.0000E+00  9.2071E-02  0.0000E+00  0.0000E+00  0.0000E+00
146  0.0000E+00  9.5800E-02  0.0000E+00  0.0000E+00  0.0000E+00  0.0000E+00  0.0000E+00  0.0000E+00  0.0000E+00
147  0.0000E+00  1.0295E-01  0.0000E+00  0.0000E+00  0.0000E+00  0.0000E+00  0.0000E+00  1.0313E+00  0.0000E+00
148  0.0000E+00  9.3565E-02  0.0000E+00  0.0000E+00  0.0000E+00  0.0000E+00  0.0000E+00  0.0000E+00  0.0000E+00
149  0.0000E+00  8.1710E-02  0.0000E+00  0.0000E+00  3.3072E-01  0.0000E+00  0.0000E+00  0.0000E+00  0.0000E+00
150  0.0000E+00  1.2566E-01  0.0000E+00  6.6620E-01  0.0000E+00  0.0000E+00  0.0000E+00  0.0000E+00  0.0000E+00

# AV, chi2 & Mass for <> & i_chain = 1 ...  7 solutions
AV       0.1378      0.1377      0.1391      0.1379      0.1419      0.1368      0.1373      0.1387      0.1355
chi2 2.5583E+00  2.5964E+00  2.5769E+00  2.5747E+00  2.5773E+00  2.5738E+00  2.5700E+00  2.5752E+00  2.5753E+00
Mass 4.6944E-10  4.8701E-10  4.8754E-10  4.7775E-10  4.8293E-10  4.8776E-10  4.7684E-10  4.7596E-10  4.8231E-10
 -18.35                                  [v0_min (km/s) before EX0s...]
  58.38                                  [vd_min (km/s) before EX0s...]


## Synthetic spectrum (Best Model) ##l_obs f_obs f_syn wei
 3070    [Nl_obs]
 3359.00    0.00000   0.44964   -2.000
 3360.00    0.23752   0.43736   -1.000
 3361.00    0.25048   0.44918   -1.000
 3362.00    0.25956   0.47680   -1.000
 3363.00    0.28400   0.50746   -1.000
 3364.00    0.30813   0.52453   -1.000
 3365.00    0.31202   0.52243   -1.000
 3366.00    0.32069   0.51137   -1.000
 3367.00    0.32847   0.49917   -1.000
 3368.00    0.32396   0.48834   -1.000
 3369.00    0.30572   0.47720   -1.000
 3370.00    0.30300   0.46325   -1.000
 3371.00    0.29600   0.45440   -1.000
 3372.00    0.29736   0.45900   -1.000
 3373.00    0.30639   0.47759   -1.000
 3374.00    0.33680   0.50264   -1.000
 3375.00    0.34172   0.52558   -1.000
 3376.00    0.36342   0.53641   -1.000
 3377.00    0.38416   0.53167   -1.000
 3378.00    0.37960   0.51691   -1.000
 3379.00    0.36969   0.50460   -1.000
 3380.00    0.36463   0.50280   -1.000
 3381.00    0.37294   0.50926   -1.000
 3382.00    0.38265   0.51821   -1.000
 3383.00    0.38181   0.52617   -1.000
 3384.00    0.39125   0.53298   -1.000
 3385.00    0.38773   0.53721   -1.000
 3386.00    0.39407   0.53364   -1.000
 3387.00    0.39570   0.52580   -1.000
 3388.00    0.40541   0.52363   -1.000
 3389.00    0.40981   0.52893   -1.000
 3390.00    0.41978   0.53456   -1.000
 3391.00    0.41369   0.53359   -1.000
 3392.00    0.41129   0.52526   -1.000
 3393.00    0.42798   0.52115   -1.000
 3394.00    0.42193   0.52829   -1.000
 3395.00    0.43668   0.54362   -1.000
 3396.00    0.44331   0.56115   -1.000
 3397.00    0.45695   0.57517   -1.000
 3398.00    0.47408   0.58326   -1.000
 3399.00    0.48723   0.58257   -1.000
 3400.00    0.48322   0.57386   -1.000
 3401.00    0.49162   0.55853   -1.000
 3402.00    0.48486   0.54152   -1.000
 3403.00    0.45851   0.53181   -1.000
 3404.00    0.45798   0.52977   -1.000
 3405.00    0.44523   0.53169   -1.000
 3406.00    0.44370   0.52930   -1.000
 3407.00    0.44293   0.52169   -1.000
 3408.00    0.42823   0.51590   -1.000
 3409.00    0.43499   0.51959   -1.000
 3410.00    0.44350   0.52796   -1.000
 3411.00    0.44957   0.52972   -1.000
 3412.00    0.45727   0.52457   -1.000
 3413.00    0.44846   0.51839   -1.000
 3414.00    0.44302   0.52005   -1.000
 3415.00    0.44762   0.53001   -1.000
 3416.00    0.45042   0.54208   -1.000
 3417.00    0.46266   0.55338   -1.000
 3418.00    0.48118   0.56338   -1.000
 3419.00    0.49071   0.57128   -1.000
 3420.00    0.49191   0.57471   -1.000
 3421.00    0.48576   0.56974   -1.000
 3422.00    0.48141   0.55716   -1.000
 3423.00    0.48986   0.54497   -1.000
 3424.00    0.47881   0.54068   -1.000
 3425.00    0.47645   0.54404   -1.000
 3426.00    0.49357   0.55116   -1.000
 3427.00    0.49553   0.56295   -1.000
 3428.00    0.49577   0.57939   -1.000
 3429.00    0.51880   0.59295   -1.000
 3430.00    0.52834   0.59252   -1.000
 3431.00    0.52532   0.57645   -1.000
 3432.00    0.51159   0.55936   -1.000
 3433.00    0.50020   0.55496   -1.000
 3434.00    0.51262   0.56550   -1.000
 3435.00    0.52608   0.57841   -1.000
 3436.00    0.52456   0.57990   -1.000
 3437.00    0.52931   0.56922   -1.000
 3438.00    0.51006   0.55211   -1.000
 3439.00    0.49865   0.53261   85.253
 3440.00    0.47663   0.51308   -1.000
 3441.00    0.46171   0.49764   -1.000
 3442.00    0.45401   0.49192   -1.000
 3443.00    0.46508   0.49635   95.641
 3444.00    0.47468   0.50798   -1.000
 3445.00    0.48981   0.52464   -1.000
 3446.00    0.49828   0.54591   -1.000
 3447.00    0.51532   0.56803   -1.000
 3448.00    0.52695   0.58462   -1.000
 3449.00    0.53856   0.58817   -1.000
 3450.00    0.53860   0.57466   -1.000
 3451.00    0.53424   0.55354   -1.000
 3452.00    0.53470   0.53852  608.433
 3453.00    0.52257   0.53611   -1.000
 3454.00    0.51791   0.54290   -1.000
 3455.00    0.55028   0.55117  608.433
 3456.00    0.56136   0.55429   -1.000
 3457.00    0.54908   0.55050  608.433
 3458.00    0.54678   0.54200  608.433
 3459.00    0.54073   0.53155   79.382
 3460.00    0.53646   0.52231   78.146
 3461.00    0.52951   0.52187   77.657
 3462.00    0.53796   0.53282  587.895
 3463.00    0.54316   0.54533  608.433
 3464.00    0.55084   0.54984  608.433
 3465.00    0.54973   0.54768  608.433
 3466.00    0.56446   0.54893   -1.000
 3467.00    0.55565   0.55848  608.433
 3468.00    0.56695   0.57260   -1.000
 3469.00    0.57939   0.58382   -1.000
 3470.00    0.58818   0.58635  608.433
 3471.00    0.57812   0.57974  608.433
 3472.00    0.57614   0.56613   -1.000
 3473.00    0.56450   0.54700   -1.000
 3474.00    0.54322   0.52892   -1.000
 3475.00    0.52511   0.51926   80.041
 3476.00    0.51652   0.52227   80.626
 3477.00    0.51569   0.53648   78.953
 3478.00    0.54389   0.55310   -1.000
 3479.00    0.57051   0.56696  608.433
 3480.00    0.57602   0.57539  608.433
 3481.00    0.58565   0.57569   -1.000
 3482.00    0.58831   0.57008   -1.000
 3483.00    0.57648   0.56446   -1.000
 3484.00    0.57623   0.56530   -1.000
 3485.00    0.58500   0.57521   -1.000
 3486.00    0.60004   0.58568   -1.000
 3487.00    0.59751   0.58607   -1.000
 3488.00    0.58732   0.57517   -1.000
 3489.00    0.57133   0.55875   -1.000
 3490.00    0.55913   0.54811   -1.000
 3491.00    0.55972   0.55011   -1.000
 3492.00    0.55524   0.55767  608.433
 3493.00    0.56597   0.55976   -1.000
 3494.00    0.56094   0.55339   -1.000
 3495.00    0.56214   0.54186   -1.000
 3496.00    0.55912   0.53470   -1.000
 3497.00    0.54615   0.53937   -1.000
 3498.00    0.56658   0.55128   -1.000
 3499.00    0.59446   0.56221   -1.000
 3500.00    0.60277   0.56588   -1.000
 3501.00    0.60525   0.56622   -1.000
 3502.00    0.60995   0.56896   -1.000
 3503.00    0.60863   0.57141   -1.000
 3504.00    0.60055   0.56927   -1.000
 3505.00    0.59267   0.56266   -1.000
 3506.00    0.58963   0.55673   -1.000
 3507.00    0.59106   0.55386   -1.000
 3508.00    0.58687   0.55315   -1.000
 3509.00    0.57837   0.55261   -1.000
 3510.00    0.57867   0.54986   -1.000
 3511.00    0.57869   0.54528   -1.000
 3512.00    0.56982   0.53947   -1.000
 3513.00    0.56825   0.53566   -1.000
 3514.00    0.56088   0.53920   -1.000
 3515.00    0.57567   0.55309   -1.000
 3516.00    0.59295   0.57371   -1.000
 3517.00    0.60678   0.58886   -1.000
 3518.00    0.60346   0.58905   -1.000
 3519.00    0.59630   0.57567   -1.000
 3520.00    0.58968   0.55938   -1.000
 3521.00    0.57526   0.54776   -1.000
 3522.00    0.57441   0.53983   -1.000
 3523.00    0.55815   0.53095   -1.000
 3524.00    0.54315   0.52057   79.386
 3525.00    0.53541   0.51607   79.801
 3526.00    0.52675   0.52398   79.351
 3527.00    0.54044   0.54090  585.269
 3528.00    0.55935   0.56054  608.433
 3529.00    0.58519   0.57617   -1.000
 3530.00    0.59302   0.58417   -1.000
 3531.00    0.58912   0.58538  608.433
 3532.00    0.59291   0.58070   -1.000
 3533.00    0.58761   0.57333   -1.000
 3534.00    0.58995   0.56912   -1.000
 3535.00    0.59331   0.57201   -1.000
 3536.00    0.59844   0.58248   -1.000
 3537.00    0.59801   0.59520  608.433
 3538.00    0.60552   0.60505  608.433
 3539.00    0.61272   0.60962  605.670
 3540.00    0.61196   0.60859  608.433
 3541.00    0.60340   0.60578  608.433
 3542.00    0.59088   0.60626   -1.000
 3543.00    0.60707   0.61113  608.433
 3544.00    0.61210   0.61515  608.433
 3545.00    0.61583   0.61418  608.433
 3546.00    0.60982   0.61012  608.433
 3547.00    0.60174   0.60654   -1.000
 3548.00    0.61153   0.60615  608.433
 3549.00    0.60990   0.60914  608.433
 3550.00    0.59926   0.61341   -1.000
 3551.00    0.58969   0.61433   -1.000
 3552.00    0.58653   0.60800   -1.000
 3553.00    0.58554   0.59849   -1.000
 3554.00    0.57894   0.59325   -1.000
 3555.00    0.58336   0.59507   -1.000
 3556.00    0.59116   0.60179   -1.000
 3557.00    0.58041   0.60885   -1.000
 3558.00    0.57839   0.61145   -1.000
 3559.00    0.58516   0.61070   -1.000
 3560.00    0.58126   0.61095   -1.000
 3561.00    0.58238   0.61294   -1.000
 3562.00    0.60487   0.61129   -1.000
 3563.00    0.59856   0.59953  608.433
 3564.00    0.57678   0.57866  608.433
 3565.00    0.55346   0.55863   80.218
 3566.00    0.53228   0.54816   80.979
 3567.00    0.52893   0.54660   80.136
 3568.00    0.53897   0.54633   79.679
 3569.00    0.52604   0.54090   82.341
 3570.00    0.51517   0.53208   83.886
 3571.00    0.52144   0.52707   81.339
 3572.00    0.53164   0.52837   77.715
 3573.00    0.54902   0.53260   -1.000
 3574.00    0.55245   0.53804   -1.000
 3575.00    0.55785   0.54527   -1.000
 3576.00    0.55776   0.55329  608.433
 3577.00    0.56369   0.55990  608.433
 3578.00    0.56113   0.56024  608.433
 3579.00    0.55600   0.55116   82.918
 3580.00    0.53719   0.53755   86.725
 3581.00    0.52232   0.52631   91.534
 3582.00    0.52287   0.52215   92.222
 3583.00    0.51375   0.52224   92.605
 3584.00    0.51262   0.51599   94.911
 3585.00    0.50028   0.50096   98.036
 3586.00    0.47710   0.48714   99.459
 3587.00    0.48176   0.48582   94.552
 3588.00    0.49907   0.49962   89.511
 3589.00    0.51118   0.52219   85.177
 3590.00    0.52965   0.54388   77.609
 3591.00    0.55306   0.55826   -1.000
 3592.00    0.56566   0.56482  608.433
 3593.00    0.56886   0.56798  608.433
 3594.00    0.57992   0.57376   -1.000
 3595.00    0.58321   0.58411  608.433
 3596.00    0.59109   0.59465  608.433
 3597.00    0.59829   0.60199  604.124
 3598.00    0.59868   0.60609   -1.000
 3599.00    0.60447   0.60696  578.498
 3600.00    0.60868   0.60142   -1.000
 3601.00    0.59648   0.58804   -1.000
 3602.00    0.57714   0.57291  608.433
 3603.00    0.57572   0.56352   -1.000
 3604.00    0.57309   0.56344   -1.000
 3605.00    0.56739   0.56718  608.433
 3606.00    0.56609   0.56737  608.433
 3607.00    0.56226   0.56269  608.433
 3608.00    0.55323   0.55615  608.433
 3609.00    0.55019   0.55251  608.433
 3610.00    0.54391   0.55366   -1.000
 3611.00    0.55872   0.55857  608.433
 3612.00    0.57111   0.56514   -1.000
 3613.00    0.56831   0.57251   -1.000
 3614.00    0.57827   0.58343   -1.000
 3615.00    0.59391   0.59474  608.433
 3616.00    0.59525   0.59491  608.433
 3617.00    0.58454   0.58121  608.433
 3618.00    0.55973   0.56340  608.433
 3619.00    0.54157   0.55602   79.064
 3620.00    0.54783   0.56491   -1.000
 3621.00    0.57528   0.58108   -1.000
 3622.00    0.59273   0.59461  608.433
 3623.00    0.59232   0.60353   -1.000
 3624.00    0.60746   0.61357   -1.000
 3625.00    0.60951   0.62940   -1.000
 3626.00    0.61646   0.64743   -1.000
 3627.00    0.62777   0.65740   -1.000
 3628.00    0.61911   0.64846   -1.000
 3629.00    0.60628   0.62112   -1.000
 3630.00    0.57865   0.58824   -1.000
 3631.00    0.54403   0.56718   -1.000
 3632.00    0.54158   0.56630   -1.000
 3633.00    0.56586   0.57933   -1.000
 3634.00    0.56794   0.59244   -1.000
 3635.00    0.57543   0.59847   -1.000
 3636.00    0.59074   0.60278   -1.000
 3637.00    0.60030   0.61204   -1.000
 3638.00    0.61655   0.62444   -1.000
 3639.00    0.63319   0.63323  557.756
 3640.00    0.62419   0.63333   -1.000
 3641.00    0.62329   0.62427  570.637
 3642.00    0.61035   0.60998  589.882
 3643.00    0.58920   0.59689   -1.000
 3644.00    0.57919   0.58861   -1.000
 3645.00    0.56856   0.58424   -1.000
 3646.00    0.57807   0.58179  608.433
 3647.00    0.58398   0.58106  608.433
 3648.00    0.58115   0.58187  608.433
 3649.00    0.57451   0.58441   -1.000
 3650.00    0.58278   0.59032   -1.000
 3651.00    0.60045   0.60059  599.253
 3652.00    0.60640   0.61402   -1.000
 3653.00    0.61994   0.62715   -1.000
 3654.00    0.62509   0.63850   -1.000
 3655.00    0.63226   0.64822   -1.000
 3656.00    0.63684   0.65568   -1.000
 3657.00    0.63321   0.65964   -1.000
 3658.00    0.62883   0.66005   -1.000
 3659.00    0.63431   0.65782   -1.000
 3660.00    0.63481   0.65273   -1.000
 3661.00    0.62931   0.64524   -1.000
 3662.00    0.63299   0.63785  540.775
 3663.00    0.62837   0.63362   -1.000
 3664.00    0.62471   0.63417   -1.000
 3665.00    0.63188   0.63689   -1.000
 3666.00    0.63944   0.63782  547.950
 3667.00    0.63027   0.63455  559.435
 3668.00    0.60458   0.62819   -1.000
 3669.00    0.60105   0.62412   -1.000
 3670.00    0.60227   0.62594   -1.000
 3671.00    0.60903   0.63351   -1.000
 3672.00    0.62569   0.64235   -1.000
 3673.00    0.62736   0.64651   -1.000
 3674.00    0.61895   0.64406   -1.000
 3675.00    0.62548   0.63555   -1.000
 3676.00    0.63255   0.62243   -1.000
 3677.00    0.61584   0.60864   -1.000
 3678.00    0.59818   0.59965  594.032
 3679.00    0.60175   0.59887  608.433
 3680.00    0.60131   0.60369  607.767
 3681.00    0.59876   0.60976   -1.000
 3682.00    0.60706   0.61412   -1.000
 3683.00    0.61076   0.61385  569.366
 3684.00    0.61324   0.60782  583.041
 3685.00    0.59560   0.59801  606.968
 3686.00    0.58039   0.59168   -1.000
 3687.00    0.57953   0.59669   -1.000
 3688.00    0.60487   0.61411   -1.000
 3689.00    0.62965   0.63423   -1.000
 3690.00    0.63523   0.64666   -1.000
 3691.00    0.63918   0.64982   -1.000
 3692.00    0.63780   0.64910   -1.000
 3693.00    0.64472   0.64981   -1.000
 3694.00    0.64570   0.65131   -1.000
 3695.00    0.63614   0.65002   -1.000
 3696.00    0.63247   0.64542   -1.000
 3697.00    0.63116   0.64594   -1.000
 3698.00    0.64709   0.65999   -1.000
 3699.00    0.67920   0.68223  510.138
 3700.00    0.68020   0.69638   -1.000
 3701.00    0.67640   0.68574   -1.000
 3702.00    0.64794   0.65068  536.201
 3703.00    0.60673   0.60778  587.061
 3704.00    0.57823   0.57634  608.433
 3705.00    0.56688   0.56791  608.433
 3706.00    0.58561   0.57913   -1.000
 3707.00    0.60345   0.59752   -1.000
 3708.00    0.61056   0.60979  608.433
 3709.00    0.61193   0.60899  608.433
 3710.00    0.61648   0.59964   -1.000
 3711.00    0.60808   0.59482   -1.000
 3712.00    0.61337   0.60550   -1.000
 3713.00    0.64853   0.63342   -1.000
 3714.00    0.68128   0.66887   -1.000
 3715.00    0.69965   0.69723  498.734
 3716.00    0.70544   0.71038  511.804
 3717.00    0.70572   0.70466  534.831
 3718.00    0.67160   0.67503  585.691
 3719.00    0.61007   0.62260   -1.000
 3720.00    0.55922   0.56508  608.433
 3721.00    0.53077   0.52975   80.738
 3722.00    0.52343   0.53218   -1.000
 3723.00    0.56857   0.56989  608.433
 3724.00    0.63256   0.62430   -1.000
 3725.00    0.67280   0.66712  556.898
 3726.00    0.69082   0.68741  560.804
 3727.00    0.68977   0.69498   -1.000
 3728.00    0.68550   0.70008   -1.000
 3729.00    0.69490   0.70207   -1.000
 3730.00    0.68283   0.69011   -1.000
 3731.00    0.65891   0.65259   -1.000
 3732.00    0.60122   0.59338   -1.000
 3733.00    0.53589   0.53340   79.229
 3734.00    0.49066   0.49362   85.825
 3735.00    0.49244   0.48859   89.234
 3736.00    0.52138   0.51972   84.946
 3737.00    0.56128   0.57317   77.014
 3738.00    0.61404   0.63273   -1.000
 3739.00    0.66788   0.68529   -1.000
 3740.00    0.69914   0.71756   -1.000
 3741.00    0.71340   0.72480   -1.000
 3742.00    0.71793   0.71281   -1.000
 3743.00    0.69084   0.69183  608.433
 3744.00    0.67066   0.66744  608.433
 3745.00    0.64062   0.64078  608.433
 3746.00    0.60734   0.60936  608.433
 3747.00    0.58703   0.57135   80.381
 3748.00    0.53026   0.53203   82.824
 3749.00    0.49879   0.50562   83.831
 3750.00    0.50922   0.50942  593.264
 3751.00    0.55563   0.54887   -1.000
 3752.00    0.61236   0.60970  596.629
 3753.00    0.66727   0.67085  551.413
 3754.00    0.71663   0.71591  522.161
 3755.00    0.74710   0.73759   -1.000
 3756.00    0.74427   0.73340   -1.000
 3757.00    0.72201   0.71068   -1.000
 3758.00    0.69291   0.68700   -1.000
 3759.00    0.68344   0.67638   -1.000
 3760.00    0.70204   0.68074   -1.000
 3761.00    0.72742   0.69377   -1.000
 3762.00    0.73382   0.70645   -1.000
 3763.00    0.74320   0.71242   -1.000
 3764.00    0.72994   0.70891   -1.000
 3765.00    0.72075   0.69609   -1.000
 3766.00    0.70515   0.67487   -1.000
 3767.00    0.66833   0.64410   -1.000
 3768.00    0.63730   0.60620   -1.000
 3769.00    0.60379   0.57088   -1.000
 3770.00    0.57153   0.55302   -1.000
 3771.00    0.57839   0.56583   -1.000
 3772.00    0.62397   0.60471   -1.000
 3773.00    0.66579   0.65055   -1.000
 3774.00    0.70434   0.68614   -1.000
 3775.00    0.73540   0.70908   -1.000
 3776.00    0.74864   0.72773   -1.000
 3777.00    0.77344   0.75061   -1.000
 3778.00    0.78901   0.77739   -1.000
 3779.00    0.80178   0.80294  504.540
 3780.00    0.82276   0.82263  492.706
 3781.00    0.83850   0.83290  489.284
 3782.00    0.83346   0.83417  486.308
 3783.00    0.83481   0.82907   -1.000
 3784.00    0.83843   0.81828   -1.000
 3785.00    0.81514   0.80055   -1.000
 3786.00    0.79542   0.77822   -1.000
 3787.00    0.77156   0.75751   -1.000
 3788.00    0.76860   0.74555   -1.000
 3789.00    0.75875   0.74277   -1.000
 3790.00    0.75209   0.74286   -1.000
 3791.00    0.75102   0.73806   -1.000
 3792.00    0.73652   0.72296   -1.000
 3793.00    0.70657   0.69538   -1.000
 3794.00    0.68050   0.65623   -1.000
 3795.00    0.64093   0.61037   -1.000
 3796.00    0.57987   0.56405   -1.000
 3797.00    0.54704   0.52801   -1.000
 3798.00    0.53487   0.51990   -1.000
 3799.00    0.56714   0.55080   -1.000
 3800.00    0.61525   0.61164  608.433
 3801.00    0.67528   0.67836  582.625
 3802.00    0.72435   0.73127   -1.000
 3803.00    0.76258   0.76381  544.351
 3804.00    0.78496   0.77912  541.150
 3805.00    0.78919   0.78177   -1.000
 3806.00    0.78851   0.78207   -1.000
 3807.00    0.79011   0.79068  581.579
 3808.00    0.80520   0.80954  566.629
 3809.00    0.82622   0.83133  544.548
 3810.00    0.84581   0.84375  538.290
 3811.00    0.85342   0.83666   -1.000
 3812.00    0.82691   0.81081   -1.000
 3813.00    0.80136   0.77972   -1.000
 3814.00    0.79510   0.75936   -1.000
 3815.00    0.78123   0.75875   -1.000
 3816.00    0.78559   0.77303   -1.000
 3817.00    0.80882   0.78745   -1.000
 3818.00    0.81235   0.78754   -1.000
 3819.00    0.78864   0.77190   -1.000
 3820.00    0.75590   0.75519  608.433
 3821.00    0.76128   0.75054   -1.000
 3822.00    0.78384   0.75408   -1.000
 3823.00    0.77422   0.74836   -1.000
 3824.00    0.74687   0.72680   -1.000
 3825.00    0.71794   0.70214   83.157
 3826.00    0.69784   0.68559   82.211
 3827.00    0.69645   0.67645   81.533
 3828.00    0.69903   0.66894   80.218
 3829.00    0.69341   0.65855   78.897
 3830.00    0.67664   0.64043   79.857
 3831.00    0.63976   0.60987   83.489
 3832.00    0.59336   0.56600   90.191
 3833.00    0.54994   0.51710   -1.000
 3834.00    0.51060   0.48094   91.226
 3835.00    0.49797   0.46902   87.535
 3836.00    0.51718   0.48175   85.601
 3837.00    0.54071   0.51237   87.395
 3838.00    0.57431   0.55046   89.519
 3839.00    0.60399   0.58921   87.964
 3840.00    0.63290   0.62947   82.952
 3841.00    0.68276   0.67192   -1.000
 3842.00    0.72386   0.71371   -1.000
 3843.00    0.76994   0.75009   -1.000
 3844.00    0.79245   0.77635   -1.000
 3845.00    0.79946   0.79428   -1.000
 3846.00    0.80550   0.80843  608.433
 3847.00    0.81671   0.81875  608.433
 3848.00    0.81217   0.82162   -1.000
 3849.00    0.80362   0.81898   -1.000
 3850.00    0.80109   0.82003   -1.000
 3851.00    0.82128   0.83125   -1.000
 3852.00    0.83656   0.84719   -1.000
 3853.00    0.83972   0.85633   -1.000
 3854.00    0.84267   0.85330   -1.000
 3855.00    0.82966   0.84187   -1.000
 3856.00    0.81905   0.82825   -1.000
 3857.00    0.80824   0.81582   -1.000
 3858.00    0.80123   0.80592   78.776
 3859.00    0.77171   0.80387   80.985
 3860.00    0.77739   0.81437   79.272
 3861.00    0.80556   0.83370   -1.000
 3862.00    0.84139   0.85129   -1.000
 3863.00    0.86616   0.85931   -1.000
 3864.00    0.86299   0.85857  608.433
 3865.00    0.86125   0.85536   -1.000
 3866.00    0.85865   0.85538  608.433
 3867.00    0.84825   0.85941   -1.000
 3868.00    0.84016   0.86201   -1.000
 3869.00    0.82938   0.85522   -1.000
 3870.00    0.80832   0.83673   -1.000
 3871.00    0.78297   0.81232   79.807
 3872.00    0.76728   0.79275   -1.000
 3873.00    0.77760   0.78835   -1.000
 3874.00    0.79676   0.79781  608.433
 3875.00    0.82006   0.80675   -1.000
 3876.00    0.81406   0.80061   -1.000
 3877.00    0.79336   0.78107   -1.000
 3878.00    0.75315   0.76355   -1.000
 3879.00    0.74604   0.75835   -1.000
 3880.00    0.74980   0.76062   -1.000
 3881.00    0.73437   0.75770   -1.000
 3882.00    0.71166   0.74514   -1.000
 3883.00    0.71656   0.72546   -1.000
 3884.00    0.71070   0.69711   -1.000
 3885.00    0.67516   0.65579   -1.000
 3886.00    0.62547   0.60325   -1.000
 3887.00    0.58380   0.55282   -1.000
 3888.00    0.55787   0.52322   -1.000
 3889.00    0.55219   0.52696   -1.000
 3890.00    0.59544   0.56441   -1.000
 3891.00    0.65398   0.61994   -1.000
 3892.00    0.69614   0.66989   -1.000
 3893.00    0.72087   0.70173   -1.000
 3894.00    0.73877   0.71999   -1.000
 3895.00    0.75377   0.73518   -1.000
 3896.00    0.77824   0.75252   -1.000
 3897.00    0.79137   0.76881   -1.000
 3898.00    0.79606   0.77912   -1.000
 3899.00    0.80253   0.78509   -1.000
 3900.00    0.81131   0.79396   -1.000
 3901.00    0.82215   0.80589   -1.000
 3902.00    0.83119   0.81385   -1.000
 3903.00    0.84164   0.81380   -1.000
 3904.00    0.82893   0.80874   -1.000
 3905.00    0.81770   0.80734   -1.000
 3906.00    0.80881   0.81672   -1.000
 3907.00    0.83221   0.83931   -1.000
 3908.00    0.87097   0.86859  488.703
 3909.00    0.89447   0.89260  476.860
 3910.00    0.90618   0.90483  472.512
 3911.00    0.90372   0.90610  467.997
 3912.00    0.90329   0.89906  465.212
 3913.00    0.89815   0.88689   -1.000
 3914.00    0.88468   0.87587   -1.000
 3915.00    0.88043   0.87122   -1.000
 3916.00    0.88189   0.87059   -1.000
 3917.00    0.87211   0.86792  504.725
 3918.00    0.86579   0.86084   -1.000
 3919.00    0.85382   0.85215  542.514
 3920.00    0.83654   0.84625   -1.000
 3921.00    0.83396   0.84494   -1.000
 3922.00    0.84806   0.84750  575.297
 3923.00    0.85006   0.85011  564.653
 3924.00    0.85058   0.84701  568.990
 3925.00    0.84412   0.83244   -1.000
 3926.00    0.80872   0.80360   -1.000
 3927.00    0.76569   0.76279  608.433
 3928.00    0.72534   0.71231   88.086
 3929.00    0.66948   0.65285   99.406
 3930.00    0.60937   0.58082   -1.000
 3931.00    0.53469   0.49541   -1.000
 3932.00    0.44741   0.41295   -1.000
 3933.00    0.38683   0.36367   -1.000
 3934.00    0.37996   0.37174  169.307
 3935.00    0.44016   0.43373  147.178
 3936.00    0.53669   0.52207  121.784
 3937.00    0.62916   0.61121  100.003
 3938.00    0.69474   0.68774   84.024
 3939.00    0.74329   0.74502  575.611
 3940.00    0.78397   0.78278  608.433
 3941.00    0.80316   0.80325  608.433
 3942.00    0.80441   0.81185   -1.000
 3943.00    0.81011   0.81709   -1.000
 3944.00    0.80490   0.82502   -1.000
 3945.00    0.83109   0.83666  564.630
 3946.00    0.85508   0.84818   -1.000
 3947.00    0.86076   0.85368   -1.000
 3948.00    0.85775   0.85279   -1.000
 3949.00    0.85665   0.84952   -1.000
 3950.00    0.88290   0.84678   -1.000
 3951.00    0.87326   0.84533   -1.000
 3952.00    0.86198   0.84690   -1.000
 3953.00    0.86234   0.85169   -1.000
 3954.00    0.87449   0.85361   -1.000
 3955.00    0.87044   0.84748   -1.000
 3956.00    0.85064   0.83589   -1.000
 3957.00    0.83977   0.82688   -1.000
 3958.00    0.84588   0.82230   -1.000
 3959.00    0.83717   0.81209   -1.000
 3960.00    0.80598   0.78748   -1.000
 3961.00    0.76263   0.75080   -1.000
 3962.00    0.71759   0.70971   -1.000
 3963.00    0.68668   0.66773   -1.000
 3964.00    0.64515   0.61661   82.927
 3965.00    0.57319   0.54594   93.662
 3966.00    0.47996   0.45700  115.446
 3967.00    0.38689   0.36764   -1.000
 3968.00    0.30268   0.30780  156.490
 3969.00    0.28475   0.29944  145.862
 3970.00    0.33833   0.34361  120.479
 3971.00    0.42547   0.42177   98.974
 3972.00    0.52361   0.50917   82.769
 3973.00    0.60669   0.58791   -1.000
 3974.00    0.67276   0.65359   -1.000
 3975.00    0.72673   0.70689   -1.000
 3976.00    0.76389   0.75026   -1.000
 3977.00    0.80048   0.78602   -1.000
 3978.00    0.83481   0.81633   -1.000
 3979.00    0.86811   0.83900   -1.000
 3980.00    0.88378   0.85037   -1.000
 3981.00    0.87990   0.85290   -1.000
 3982.00    0.88164   0.85477   -1.000
 3983.00    0.89711   0.86322   -1.000
 3984.00    0.90770   0.87810   -1.000
 3985.00    0.92268   0.89312   -1.000
 3986.00    0.92860   0.90409   -1.000
 3987.00    0.94118   0.91315   -1.000
 3988.00    0.95025   0.92202   -1.000
 3989.00    0.95111   0.92910   -1.000
 3990.00    0.95067   0.93606   -1.000
 3991.00    0.95822   0.94516   -1.000
 3992.00    0.96924   0.95520   -1.000
 3993.00    0.97926   0.96114   -1.000
 3994.00    0.97034   0.95744   -1.000
 3995.00    0.95640   0.94404   -1.000
 3996.00    0.94020   0.92841   -1.000
 3997.00    0.93874   0.92163   -1.000
 3998.00    0.94378   0.92828   -1.000
 3999.00    0.96277   0.94346   -1.000
 4000.00    0.98319   0.95844   -1.000
 4001.00    0.99130   0.96679   -1.000
 4002.00    1.00094   0.96582   -1.000
 4003.00    0.99846   0.95597   -1.000
 4004.00    0.97686   0.94056   -1.000
 4005.00    0.95327   0.92953   -1.000
 4006.00    0.95192   0.93366   -1.000
 4007.00    0.96845   0.95159   -1.000
 4008.00    0.98782   0.97203   -1.000
 4009.00    0.99891   0.98492   -1.000
 4010.00    1.00000   0.98905   -1.000
 4011.00    0.99191   0.98811  368.539
 4012.00    0.98866   0.98588  371.182
 4013.00    0.99680   0.98607   -1.000
 4014.00    0.99817   0.98986   -1.000
 4015.00    1.00633   0.99522   -1.000
 4016.00    1.00568   1.00031  368.275
 4017.00    1.00795   1.00544  372.860
 4018.00    1.00561   1.01169  371.106
 4019.00    1.00217   1.01752   -1.000
 4020.00    1.00825   1.01897   -1.000
 4021.00    1.00714   1.01388  371.565
 4022.00    1.00252   1.00446  373.769
 4023.00    1.00167   0.99489  376.215
 4024.00    0.99419   0.99014  379.168
 4025.00    0.99418   0.99494  369.812
 4026.00    1.00583   1.00745  356.567
 4027.00    1.01669   1.01653  349.306
 4028.00    1.01343   1.01187  352.417
 4029.00    0.99496   0.99412  366.989
 4030.00    0.97604   0.97180  392.277
 4031.00    0.95852   0.95564  408.920
 4032.00    0.94900   0.95144  413.915
 4033.00    0.95959   0.95810  408.703
 4034.00    0.97475   0.97314  395.336
 4035.00    0.99445   0.99451  375.738
 4036.00    1.01305   1.01849  357.172
 4037.00    1.03062   1.03771  344.566
 4038.00    1.03551   1.04471  343.197
 4039.00    1.02501   1.04028   -1.000
 4040.00    1.01482   1.03188   -1.000
 4041.00    1.01337   1.02432   -1.000
 4042.00    1.01351   1.01384  364.611
 4043.00    0.99668   0.99268  382.209
 4044.00    0.96473   0.96416  419.760
 4045.00    0.93065   0.94491   -1.000
 4046.00    0.93125   0.94927   -1.000
 4047.00    0.96260   0.97511   -1.000
 4048.00    0.99477   1.00452   -1.000
 4049.00    1.01816   1.02262  357.448
 4050.00    1.02295   1.02784  353.284
 4051.00    1.01605   1.02422  355.693
 4052.00    1.01587   1.01455  365.500
 4053.00    1.00145   1.00353  375.003
 4054.00    0.99237   0.99609  380.858
 4055.00    0.99066   0.99273  383.906
 4056.00    0.99507   0.99191  386.502
 4057.00    0.99672   0.99441  390.566
 4058.00    0.99333   1.00287   -1.000
 4059.00    0.99889   1.01357   -1.000
 4060.00    1.00847   1.01473  364.526
 4061.00    1.00344   1.00033  370.742
 4062.00    0.97306   0.97665  398.027
 4063.00    0.94645   0.95561   -1.000
 4064.00    0.94941   0.94609  419.401
 4065.00    0.96187   0.94891   -1.000
 4066.00    0.96922   0.95815   -1.000
 4067.00    0.97516   0.96723   -1.000
 4068.00    0.98171   0.97265   -1.000
 4069.00    0.99745   0.97054   -1.000
 4070.00    0.99412   0.95903   -1.000
 4071.00    0.96848   0.94525   -1.000
 4072.00    0.96231   0.94049   -1.000
 4073.00    0.98362   0.94552   -1.000
 4074.00    0.98529   0.94768   -1.000
 4075.00    0.96891   0.93538   -1.000
 4076.00    0.94003   0.91261   -1.000
 4077.00    0.91784   0.89570   -1.000
 4078.00    0.92417   0.89900   -1.000
 4079.00    0.95072   0.92240   -1.000
 4080.00    0.98069   0.94992   -1.000
 4081.00    0.98676   0.96525   -1.000
 4082.00    0.98219   0.96425   -1.000
 4083.00    0.97238   0.95353   -1.000
 4084.00    0.95480   0.94313   -1.000
 4085.00    0.94927   0.94052   -1.000
 4086.00    0.96611   0.94735   -1.000
 4087.00    0.98085   0.95878   -1.000
 4088.00    0.99000   0.96737   -1.000
 4089.00    0.98191   0.96804   -1.000
 4090.00    0.97452   0.96137   -1.000
 4091.00    0.96185   0.95139   -1.000
 4092.00    0.94566   0.93896  356.228
 4093.00    0.94113   0.92295   -1.000
 4094.00    0.92989   0.90335   -1.000
 4095.00    0.90564   0.87959   -1.000
 4096.00    0.87687   0.85195   -1.000
 4097.00    0.84527   0.81917   -1.000
 4098.00    0.82188   0.77727   -1.000
 4099.00    0.77706   0.72256   -1.000
 4100.00    0.70103   0.66295   -1.000
 4101.00    0.63481   0.62277   -1.000
 4102.00    0.62839   0.62506  486.351
 4103.00    0.69015   0.67196   -1.000
 4104.00    0.77305   0.73995   -1.000
 4105.00    0.82379   0.80073   -1.000
 4106.00    0.85252   0.84073   -1.000
 4107.00    0.88207   0.86295   -1.000
 4108.00    0.89337   0.87480   -1.000
 4109.00    0.89364   0.88336   -1.000
 4110.00    0.90769   0.89327   -1.000
 4111.00    0.92183   0.90676   -1.000
 4112.00    0.93745   0.92368   -1.000
 4113.00    0.94796   0.94189  371.166
 4114.00    0.95952   0.95879  365.454
 4115.00    0.97286   0.96977  361.878
 4116.00    0.97610   0.97129  363.658
 4117.00    0.96715   0.96451  371.442
 4118.00    0.94832   0.95509  384.089
 4119.00    0.94568   0.94954  388.626
 4120.00    0.95787   0.95047   -1.000
 4121.00    0.95810   0.95482  379.770
 4122.00    0.96287   0.95974  380.159
 4123.00    0.97515   0.96635   -1.000
 4124.00    0.98308   0.97465   -1.000
 4125.00    0.99050   0.97996   -1.000
 4126.00    0.98386   0.97841  373.082
 4127.00    0.97616   0.97209  381.193
 4128.00    0.96879   0.96657  384.366
 4129.00    0.96651   0.96350  386.298
 4130.00    0.96908   0.95879   -1.000
 4131.00    0.96342   0.95081   -1.000
 4132.00    0.95295   0.94555   -1.000
 4133.00    0.94722   0.95086  417.529
 4134.00    0.95210   0.96685   -1.000
 4135.00    0.96711   0.98692   -1.000
 4136.00    0.98448   1.00532   -1.000
 4137.00    1.00216   1.02008   -1.000
 4138.00    1.01586   1.03121   -1.000
 4139.00    1.01806   1.03584   -1.000
 4140.00    1.01201   1.02863   -1.000
 4141.00    0.99883   1.00913   -1.000
 4142.00    0.96716   0.98480   -1.000
 4143.00    0.93526   0.96842   -1.000
 4144.00    0.93896   0.96981   -1.000
 4145.00    0.96843   0.98546   -1.000
 4146.00    0.99010   1.00174   -1.000
 4147.00    0.99401   1.00851   -1.000
 4148.00    0.98717   1.00727   -1.000
 4149.00    0.97717   1.00508   -1.000
 4150.00    0.98129   1.00539   -1.000
 4151.00    0.98668   1.00550   -1.000
 4152.00    0.98314   1.00134   -1.000
 4153.00    0.97650   0.99356   -1.000
 4154.00    0.97178   0.98686   -1.000
 4155.00    0.95337   0.98592   -1.000
 4156.00    1.10324   0.99179   -1.000
 4157.00    1.12343   1.00202   -1.000
 4158.00    0.91191   1.01277   -1.000
 4159.00    0.87120   1.02015   -1.000
 4160.00    0.99022   1.02312   -1.000
 4161.00    1.02041   1.02407  370.604
 4162.00    1.00625   1.02651   -1.000
 4163.00    1.01451   1.03125   -1.000
 4164.00    1.00110   1.03572   -1.000
 4165.00    0.99258   1.03611   -1.000
 4166.00    0.99351   1.03156   -1.000
 4167.00    0.98890   1.02613   -1.000
 4168.00    0.98471   1.02189   -1.000
 4169.00    0.98491   1.01447   -1.000
 4170.00    0.99101   0.99713  389.167
 4171.00    0.97012   0.97073  412.549
 4172.00    0.93678   0.94808   -1.000
 4173.00    0.92415   0.94209   -1.000
 4174.00    0.93154   0.95384   -1.000
 4175.00    0.94627   0.97135   -1.000
 4176.00    0.96002   0.98058   -1.000
 4177.00    0.95235   0.98112   -1.000
 4178.00    0.95917   0.98194   -1.000
 4179.00    0.97828   0.98895   -1.000
 4180.00    0.98074   0.99758   -1.000
 4181.00    0.97703   1.00023   -1.000
 4182.00    0.97906   0.99970   -1.000
 4183.00    0.98104   1.00216   -1.000
 4184.00    0.98108   1.00584   -1.000
 4185.00    0.98186   1.00507   -1.000
 4186.00    0.96572   0.99852   -1.000
 4187.00    0.95035   0.99219   -1.000
 4188.00    0.95587   0.99252   -1.000
 4189.00    0.97245   0.99779   -1.000
 4190.00    0.97512   1.00275   -1.000
 4191.00    0.97932   1.00661   -1.000
 4192.00    0.98583   1.01126   -1.000
 4193.00    0.99068   1.01509   -1.000
 4194.00    0.99634   1.01213   -1.000
 4195.00    0.97814   0.99903   -1.000
 4196.00    0.95482   0.98038   -1.000
 4197.00    0.94403   0.96324   -1.000
 4198.00    0.93306   0.95207   -1.000
 4199.00    0.93603   0.94893   -1.000
 4200.00    0.94831   0.95182  411.545
 4201.00    0.94749   0.95553   -1.000
 4202.00    0.94785   0.95920   -1.000
 4203.00    0.95596   0.96610   -1.000
 4204.00    0.95394   0.97591   -1.000
 4205.00    0.95656   0.98611   -1.000
 4206.00    0.96998   0.99604   -1.000
 4207.00    0.98390   1.00414   -1.000
 4208.00    0.98428   1.00806   -1.000
 4209.00    0.98357   1.00916   -1.000
 4210.00    0.98557   1.01124   -1.000
 4211.00    0.98092   1.01562   -1.000
 4212.00    0.98248   1.01781   -1.000
 4213.00    0.98256   1.01056   -1.000
 4214.00    0.96501   0.99476   -1.000
 4215.00    0.94080   0.98030   -1.000
 4216.00    0.94306   0.97749   -1.000
 4217.00    0.96003   0.98877   -1.000
 4218.00    0.97527   1.00548   -1.000
 4219.00    0.99378   1.01838   -1.000
 4220.00    1.00254   1.02429   -1.000
 4221.00    0.99410   1.02150   -1.000
 4222.00    0.98373   1.00691   -1.000
 4223.00    0.96374   0.97834   -1.000
 4224.00    0.93297   0.94004  424.837
 4225.00    0.89040   0.90509   -1.000
 4226.00    0.85037   0.88974   -1.000
 4227.00    0.86428   0.90556   -1.000
 4228.00    0.91291   0.94701   -1.000
 4229.00    0.96230   0.99074   -1.000
 4230.00    0.98899   1.01399   -1.000
 4231.00    0.98411   1.01296   -1.000
 4232.00    0.96910   0.99869   -1.000
 4233.00    0.96073   0.98319   -1.000
 4234.00    0.95509   0.97435   -1.000
 4235.00    0.94893   0.97312   -1.000
 4236.00    0.94501   0.97525   -1.000
 4237.00    0.94155   0.97969   -1.000
 4238.00    0.94861   0.98744   -1.000
 4239.00    0.95291   0.99757   -1.000
 4240.00    0.96669   1.00863   -1.000
 4241.00    0.98089   1.01810   -1.000
 4242.00    0.97304   1.02399   -1.000
 4243.00    0.96978   1.02538   -1.000
 4244.00    0.97889   1.02130   -1.000
 4245.00    0.97661   1.01025   -1.000
 4246.00    0.95553   0.99341   -1.000
 4247.00    0.94200   0.97777   -1.000
 4248.00    0.93905   0.96936   -1.000
 4249.00    0.93068   0.96821   -1.000
 4250.00    0.92649   0.97293   -1.000
 4251.00    0.93930   0.98231   -1.000
 4252.00    0.95512   0.99105   -1.000
 4253.00    0.96484   0.99426   -1.000
 4254.00    0.95575   0.99456   -1.000
 4255.00    0.95043   0.99752   -1.000
 4256.00    0.96630   1.00226   -1.000
 4257.00    0.97777   1.00061   -1.000
 4258.00    0.96490   0.98867   -1.000
 4259.00    0.94036   0.97454   -1.000
 4260.00    0.92775   0.97045   -1.000
 4261.00    0.93749   0.98155   -1.000
 4262.00    0.96128   1.00279   -1.000
 4263.00    0.97893   1.02311   -1.000
 4264.00    0.98434   1.03367   -1.000
 4265.00    0.99895   1.03368   -1.000
 4266.00    0.98973   1.02759   -1.000
 4267.00    0.97082   1.01714   -1.000
 4268.00    0.96891   1.00146   -1.000
 4269.00    0.95845   0.98023   -1.000
 4270.00    0.93581   0.95631   -1.000
 4271.00    0.90888   0.93734   -1.000
 4272.00    0.89935   0.93086   -1.000
 4273.00    0.90591   0.93767   -1.000
 4274.00    0.91244   0.95300   -1.000
 4275.00    0.93000   0.97339   -1.000
 4276.00    0.95287   0.99597   -1.000
 4277.00    0.97384   1.01351   -1.000
 4278.00    0.97484   1.01878   -1.000
 4279.00    0.95436   1.01192   -1.000
 4280.00    0.94217   0.99986   -1.000
 4281.00    0.93506   0.99059   -1.000
 4282.00    0.93295   0.98675   -1.000
 4283.00    0.94255   0.98589   -1.000
 4284.00    0.94463   0.98456   -1.000
 4285.00    0.93454   0.97866   -1.000
 4286.00    0.92403   0.96554   -1.000
 4287.00    0.91074   0.94592   -1.000
 4288.00    0.89624   0.92355   -1.000
 4289.00    0.87641   0.90658   -1.000
 4290.00    0.86784   0.90488   -1.000
 4291.00    0.88483   0.91858   -1.000
 4292.00    0.91123   0.93506   -1.000
 4293.00    0.91949   0.94139   -1.000
 4294.00    0.92326   0.93786   -1.000
 4295.00    0.90886   0.93192   -1.000
 4296.00    0.90468   0.92298   -1.000
 4297.00    0.88406   0.90552   -1.000
 4298.00    0.85360   0.87940   -1.000
 4299.00    0.82315   0.85199   -1.000
 4300.00    0.80890   0.83349   -1.000
 4301.00    0.81853   0.82891   -1.000
 4302.00    0.82742   0.83576   -1.000
 4303.00    0.83306   0.84879   -1.000
 4304.00    0.84149   0.86109   -1.000
 4305.00    0.84673   0.86386   -1.000
 4306.00    0.83775   0.85529   -1.000
 4307.00    0.81417   0.84347   -1.000
 4308.00    0.79190   0.83938   -1.000
 4309.00    0.79990   0.84828   -1.000
 4310.00    0.82142   0.86501   -1.000
 4311.00    0.83739   0.87967   -1.000
 4312.00    0.84525   0.88775   -1.000
 4313.00    0.86033   0.89604   -1.000
 4314.00    0.87664   0.91476   -1.000
 4315.00    0.91379   0.94638   -1.000
 4316.00    0.95762   0.98174   -1.000
 4317.00    0.97516   1.00603   -1.000
 4318.00    0.98816   1.01304   -1.000
 4319.00    0.98191   1.00684   -1.000
 4320.00    0.97634   0.99443   -1.000
 4321.00    0.96432   0.97896   -1.000
 4322.00    0.95220   0.95877  363.854
 4323.00    0.91846   0.93252   -1.000
 4324.00    0.86948   0.90629   -1.000
 4325.00    0.85270   0.89502   -1.000
 4326.00    0.87687   0.90798   -1.000
 4327.00    0.91041   0.93528   -1.000
 4328.00    0.93495   0.95767   -1.000
 4329.00    0.94410   0.96477   -1.000
 4330.00    0.92921   0.96119   -1.000
 4331.00    0.93121   0.95647   -1.000
 4332.00    0.92688   0.95267   -1.000
 4333.00    0.91358   0.94502   -1.000
 4334.00    0.90973   0.92761   -1.000
 4335.00    0.89718   0.89556  332.594
 4336.00    0.86041   0.84539   -1.000
 4337.00    0.80325   0.77935   -1.000
 4338.00    0.73615   0.71086   -1.000
 4339.00    0.66499   0.65962  460.740
 4340.00    0.63041   0.64304   -1.000
 4341.00    0.65229   0.67009   -1.000
 4342.00    0.72824   0.72984  392.458
 4343.00    0.80168   0.79570  368.591
 4344.00    0.83129   0.84839   -1.000
 4345.00    0.86799   0.88699   -1.000
 4346.00    0.88722   0.91718   -1.000
 4347.00    0.90729   0.93990   -1.000
 4348.00    0.92503   0.95063   -1.000
 4349.00    0.93685   0.94546  333.586
 4350.00    0.91563   0.92816   -1.000
 4351.00    0.89092   0.91293   -1.000
 4352.00    0.88403   0.91345   -1.000
 4353.00    0.90891   0.93210   -1.000
 4354.00    0.93539   0.95894   -1.000
 4355.00    0.95159   0.98123   -1.000
 4356.00    0.96673   0.99311   -1.000
 4357.00    0.96835   0.99578   -1.000
 4358.00    0.95933   0.99446   -1.000
 4359.00    0.96023   0.99588   -1.000
 4360.00    0.97222   1.00357   -1.000
 4361.00    0.98168   1.01507   -1.000
 4362.00    0.98579   1.02567   -1.000
 4363.00    0.98780   1.03273   -1.000
 4364.00    1.00013   1.03459   -1.000
 4365.00    0.99418   1.02955   -1.000
 4366.00    0.98001   1.01799   -1.000
 4367.00    0.96845   1.00441   -1.000
 4368.00    0.96793   0.99483   -1.000
 4369.00    0.97240   0.99101   -1.000
 4370.00    0.97504   0.98991   -1.000
 4371.00    0.97212   0.98611   -1.000
 4372.00    0.97525   0.97518  343.012
 4373.00    0.96692   0.95813   -1.000
 4374.00    0.94726   0.94395  371.651
 4375.00    0.93920   0.94478  371.534
 4376.00    0.94728   0.96300   -1.000
 4377.00    0.97398   0.98747   -1.000
 4378.00    0.99818   1.00413  332.063
 4379.00    0.99591   1.00649   -1.000
 4380.00    0.98663   0.99401  340.349
 4381.00    0.97621   0.96666   -1.000
 4382.00    0.93652   0.92948   -1.000
 4383.00    0.88987   0.89830   -1.000
 4384.00    0.87494   0.88982   -1.000
 4385.00    0.90224   0.90636  403.832
 4386.00    0.94476   0.93404   -1.000
 4387.00    0.96728   0.95645   -1.000
 4388.00    0.96689   0.96780  354.757
 4389.00    0.96448   0.97105  358.750
 4390.00    0.96802   0.97180  359.815
 4391.00    0.97731   0.97360  352.610
 4392.00    0.98870   0.97367   -1.000
 4393.00    0.98105   0.96741   -1.000
 4394.00    0.96654   0.95895   -1.000
 4395.00    0.96237   0.95925  353.590
 4396.00    0.96907   0.97023  336.928
 4397.00    0.98248   0.98000  327.289
 4398.00    0.98266   0.97859  332.288
 4399.00    0.96455   0.96941  344.889
 4400.00    0.95343   0.96372   -1.000
 4401.00    0.96824   0.96617  350.519
 4402.00    0.98442   0.96990   -1.000
 4403.00    0.97455   0.96764  356.775
 4404.00    0.94757   0.96186   -1.000
 4405.00    0.94636   0.96012   -1.000
 4406.00    0.96206   0.96427  367.390
 4407.00    0.96397   0.97007  362.248
 4408.00    0.96589   0.97629   -1.000
 4409.00    0.97547   0.98702   -1.000
 4410.00    0.99038   1.00197   -1.000
 4411.00    1.00905   1.01317  319.010
 4412.00    1.01913   1.01271  315.443
 4413.00    1.00479   0.99843  324.363
 4414.00    0.97949   0.97546  343.503
 4415.00    0.96397   0.95574   -1.000
 4416.00    0.96024   0.95042   -1.000
 4417.00    0.96354   0.96194  340.595
 4418.00    0.98032   0.98414  326.350
 4419.00    1.00536   1.00558  317.263
 4420.00    1.01093   1.01627  319.429
 4421.00    1.00995   1.01521  328.133
 4422.00    1.00419   1.01053  333.983
 4423.00    0.99891   1.00865   -1.000
 4424.00    1.00132   1.00837  330.256
 4425.00    0.98903   1.00679   -1.000
 4426.00    0.97992   1.00509   -1.000
 4427.00    0.98282   1.00596   -1.000
 4428.00    0.98549   1.00917   -1.000
 4429.00    1.00122   1.01230   -1.000
 4430.00    1.00211   1.01385   -1.000
 4431.00    1.00008   1.01322   -1.000
 4432.00    1.00814   1.00882  327.311
 4433.00    0.99248   0.99931  338.639
 4434.00    0.97504   0.98886   -1.000
 4435.00    0.96219   0.98739   -1.000
 4436.00    0.97060   1.00089   -1.000
 4437.00    1.01005   1.02312   -1.000
 4438.00    1.02920   1.04025   -1.000
 4439.00    1.03426   1.04148  308.787
 4440.00    1.01461   1.02529   -1.000
 4441.00    0.99507   0.99978  334.524
 4442.00    0.96672   0.97840   -1.000
 4443.00    0.94646   0.97320   -1.000
 4444.00    0.96960   0.98660   -1.000
 4445.00    0.99570   1.00896   -1.000
 4446.00    0.99780   1.02644   -1.000
 4447.00    1.00282   1.03342   -1.000
 4448.00    1.00596   1.03324   -1.000
 4449.00    1.00036   1.03034   -1.000
 4450.00    0.99472   1.02768   -1.000
 4451.00    0.99646   1.02571   -1.000
 4452.00    1.00331   1.02077   -1.000
 4453.00    0.99564   1.00889   -1.000
 4454.00    0.97277   0.99369   -1.000
 4455.00    0.96129   0.98510   -1.000
 4456.00    0.96908   0.98756   -1.000
 4457.00    0.98678   0.99496  345.292
 4458.00    0.98849   0.99929   -1.000
 4459.00    0.98233   0.99905   -1.000
 4460.00    0.97376   0.99746   -1.000
 4461.00    0.96744   0.99870   -1.000
 4462.00    0.98109   1.00442   -1.000
 4463.00    0.99479   1.01190   -1.000
 4464.00    1.00516   1.01689   -1.000
 4465.00    1.00330   1.01656   -1.000
 4466.00    0.99130   1.00996   -1.000
 4467.00    0.98336   0.99891   -1.000
 4468.00    0.97569   0.98992   -1.000
 4469.00    0.97429   0.99061   -1.000
 4470.00    0.98668   1.00283   -1.000
 4471.00    0.99641   1.02133   -1.000
 4472.00    1.01062   1.03863   -1.000
 4473.00    1.03181   1.05017   -1.000
 4474.00    1.03439   1.05547   -1.000
 4475.00    1.02746   1.05700   -1.000
 4476.00    1.02578   1.05717   -1.000
 4477.00    1.02983   1.05504   -1.000
 4478.00    1.03703   1.04563  299.077
 4479.00    1.03218   1.02669  310.455
 4480.00    1.00533   1.00567  324.702
 4481.00    0.97957   0.99519   -1.000
 4482.00    0.98379   1.00251   -1.000
 4483.00    1.00721   1.02342   -1.000
 4484.00    1.02558   1.04603   -1.000
 4485.00    1.04038   1.05976   -1.000
 4486.00    1.04103   1.06010   -1.000
 4487.00    1.02786   1.04871   -1.000
 4488.00    1.01637   1.03324   -1.000
 4489.00    1.00376   1.02388   -1.000
 4490.00    1.00039   1.02567   -1.000
 4491.00    1.00851   1.03453   -1.000
 4492.00    1.01965   1.04095   -1.000
 4493.00    1.01702   1.03962   -1.000
 4494.00    1.01020   1.03483   -1.000
 4495.00    1.00294   1.03356   -1.000
 4496.00    1.00885   1.03733   -1.000
 4497.00    1.02913   1.04271   -1.000
 4498.00    1.03480   1.04496  303.877
 4499.00    1.02985   1.04084  300.944
 4500.00    1.01690   1.03366   -1.000
 4501.00    1.01578   1.03273   -1.000
 4502.00    1.02691   1.04305   -1.000
 4503.00    1.04511   1.05966   -1.000
 4504.00    1.05910   1.07254   -1.000
 4505.00    1.05527   1.07580   -1.000
 4506.00    1.04571   1.07080   -1.000
 4507.00    1.04326   1.06343   -1.000
 4508.00    1.04022   1.06004   -1.000
 4509.00    1.03903   1.06231   -1.000
 4510.00    1.04923   1.06595   -1.000
 4511.00    1.04381   1.06590   -1.000
 4512.00    1.03745   1.06146   -1.000
 4513.00    1.03701   1.05468   -1.000
 4514.00    1.03306   1.04796   -1.000
 4515.00    1.02595   1.04368   -1.000
 4516.00    1.02364   1.04202   -1.000
 4517.00    1.02251   1.04039   -1.000
 4518.00    1.01496   1.03723   -1.000
 4519.00    1.01798   1.03471   -1.000
 4520.00    1.03134   1.03429  297.397
 4521.00    1.02934   1.03299  298.473
 4522.00    1.02567   1.02829  305.744
 4523.00    1.01583   1.02271  311.929
 4524.00    1.00951   1.01919  314.508
 4525.00    1.00977   1.01569  319.868
 4526.00    1.00624   1.00855  329.821
 4527.00    0.98817   0.99781   -1.000
 4528.00    0.97912   0.98851  343.067
 4529.00    0.98291   0.98612  340.412
 4530.00    0.99337   0.99038  334.326
 4531.00    0.99401   0.99425  328.206
 4532.00    0.99079   0.98991  326.699
 4533.00    0.97567   0.97907  336.159
 4534.00    0.95817   0.97314   -1.000
 4535.00    0.96671   0.98168   -1.000
 4536.00    0.99028   1.00319   -1.000
 4537.00    1.01906   1.02754  303.761
 4538.00    1.04533   1.04418  295.796
 4539.00    1.04534   1.04859  298.911
 4540.00    1.02716   1.04466   -1.000
 4541.00    1.02614   1.03980   -1.000
 4542.00    1.03102   1.03822  303.502
 4543.00    1.01743   1.03808   -1.000
 4544.00    1.07013   1.03588   -1.000
 4545.00    0.47341   1.03215   -2.000
 4546.00   -0.06002   1.02754   -2.000
 4547.00   -0.10476   1.01817   -2.000
 4548.00    0.49284   1.00251   -1.000
 4549.00    0.49834   0.98908   -1.000
 4550.00    0.38572   0.98889   -1.000
 4551.00    1.03493   0.99965   -1.000
 4552.00    1.00159   1.00682  317.092
 4553.00    0.99124   1.00271   -1.000
 4554.00    0.98620   0.99468  325.060
 4555.00    0.99634   0.99456  320.008
 4556.00    1.00844   1.00661  308.152
 4557.00    1.02835   1.02453  295.692
 4558.00    1.04172   1.03954  290.630
 4559.00    1.03845   1.04934  292.382
 4560.00    1.03933   1.05490   -1.000
 4561.00    1.03735   1.05391   -1.000
 4562.00    1.03137   1.04423   -1.000
 4563.00    1.01558   1.03092   -1.000
 4564.00    1.00454   1.02366   -1.000
 4565.00    1.01622   1.02725   -1.000
 4566.00    1.03005   1.03806  300.430
 4567.00    1.03801   1.04844  292.461
 4568.00    1.04971   1.05216  289.613
 4569.00    1.04179   1.04696  292.923
 4570.00    1.02176   1.03475   -1.000
 4571.00    1.00613   1.02242   -1.000
 4572.00    1.00176   1.01998   -1.000
 4573.00    1.01246   1.02964   -1.000
 4574.00    1.03715   1.04136  292.430
 4575.00    1.03914   1.04609  292.677
 4576.00    1.03343   1.04447  294.052
 4577.00    1.03450   1.04012  295.769
 4578.00    1.03376   1.03318  300.908
 4579.00    1.02645   1.02312  310.040
 4580.00    1.01836   1.01241  316.400
 4581.00    1.01159   1.00384  315.399
 4582.00    1.01106   0.99761   -1.000
 4583.00    1.00786   0.99498   -1.000
 4584.00    1.01061   0.99852   -1.000
 4585.00    1.01386   1.00686  311.561
 4586.00    1.01969   1.01577  307.144
 4587.00    1.02793   1.02260  298.991
 4588.00    1.03499   1.02627  292.657
 4589.00    1.02917   1.02690  292.316
 4590.00    1.02718   1.02570  296.693
 4591.00    1.02218   1.02362  302.268
 4592.00    1.01433   1.02216  307.572
 4593.00    1.01879   1.02336  307.783
 4594.00    1.02508   1.02726  305.106
 4595.00    1.03719   1.03245  302.707
 4596.00    1.03206   1.03731  301.926
 4597.00    1.03002   1.03987  301.294
 4598.00    1.03545   1.03899  300.615
 4599.00    1.03923   1.03508  303.327
 4600.00    1.02479   1.02970  306.061
 4601.00    1.02083   1.02547  306.889
 4602.00    1.02156   1.02425  303.562
 4603.00    1.01979   1.02587  300.139
 4604.00    1.02828   1.02907  300.703
 4605.00    1.03270   1.03276  300.186
 4606.00    1.03770   1.03722  296.869
 4607.00    1.04674   1.04275  290.942
 4608.00    1.04651   1.04832  284.691
 4609.00    1.04926   1.05194  281.380
 4610.00    1.05312   1.05171  282.715
 4611.00    1.04891   1.04832  286.673
 4612.00    1.04539   1.04468  289.848
 4613.00    1.04319   1.04284  291.706
 4614.00    1.04223   1.04226  290.207
 4615.00    1.04183   1.04077  287.593
 4616.00    1.03785   1.03765  286.463
 4617.00    1.03597   1.03394  288.439
 4618.00    1.03972   1.03123  290.592
 4619.00    1.03820   1.03166  290.277
 4620.00    1.04189   1.03654  287.454
 4621.00    1.05166   1.04411  282.837
 4622.00    1.04923   1.05012  282.825
 4623.00    1.04896   1.05163  283.556
 4624.00    1.04797   1.04943  284.112
 4625.00    1.04129   1.04601  286.772
 4626.00    1.03924   1.04287  287.440
 4627.00    1.04161   1.03959  287.274
 4628.00    1.04149   1.03598  289.174
 4629.00    1.03304   1.03461  289.772
 4630.00    1.03559   1.03767  288.281
 4631.00    1.04038   1.04259  284.902
 4632.00    1.04354   1.04440  286.257
 4633.00    1.04329   1.04173  290.516
 4634.00    1.04002   1.03792  293.708
 4635.00    1.03916   1.03632  293.379
 4636.00    1.03280   1.03632  295.810
 4637.00    1.03770   1.03626  299.779
 4638.00    1.03856   1.03680  300.961
 4639.00    1.03192   1.03968  300.506
 4640.00    1.04589   1.04515  295.314
 4641.00    1.05434   1.05101  288.016
 4642.00    1.05285   1.05441  284.117
 4643.00    1.06187   1.05342  285.366
 4644.00    1.05471   1.04783  290.782
 4645.00    1.04377   1.03870  299.063
 4646.00    1.03161   1.02854  307.356
 4647.00    1.02333   1.02249  308.546
 4648.00    1.02418   1.02440  302.951
 4649.00    1.04190   1.03212  295.812
 4650.00    1.04251   1.04042  291.806
 4651.00    1.04045   1.04539  291.361
 4652.00    1.03818   1.04550  290.754
 4653.00    1.03158   1.04112  294.299
 4654.00    1.02885   1.03458  301.226
 4655.00    1.01985   1.02938  304.632
 4656.00    1.01610   1.02862   -1.000
 4657.00    1.02637   1.03491  292.150
 4658.00    1.04614   1.04790  280.881
 4659.00    1.06050   1.06135  274.654
 4660.00    1.06473   1.06774  274.482
 4661.00    1.06396   1.06520  277.977
 4662.00    1.05057   1.05739  284.900
 4663.00    1.04682   1.04838  290.499
 4664.00    1.04522   1.03875  291.081
 4665.00    1.04326   1.02646   -1.000
 4666.00    1.02889   1.01135   -1.000
 4667.00    1.01056   0.99873   -1.000
 4668.00    1.00655   0.99556   -1.000
 4669.00    1.01449   1.00269   -1.000
 4670.00    1.02896   1.01529   -1.000
 4671.00    1.04311   1.02772   -1.000
 4672.00    1.04351   1.03625  289.023
 4673.00    1.05154   1.04117   -1.000
 4674.00    1.05264   1.04523  288.974
 4675.00    1.05148   1.04930  285.140
 4676.00    1.05739   1.05089  280.821
 4677.00    1.05421   1.04683  282.344
 4678.00    1.05063   1.03810   -1.000
 4679.00    1.03926   1.02888   -1.000
 4680.00    1.02844   1.02221  299.155
 4681.00    1.03107   1.01979   -1.000
 4682.00    1.03572   1.02207   -1.000
 4683.00    1.03671   1.02742  290.496
 4684.00    1.04635   1.03266   -1.000
 4685.00    1.05797   1.03549   -1.000
 4686.00    1.05441   1.03609   -1.000
 4687.00    1.05313   1.03581   -1.000
 4688.00    1.05447   1.03545   -1.000
 4689.00    1.04932   1.03461   -1.000
 4690.00    1.04954   1.03256   -1.000
 4691.00    1.03818   1.03062  292.329
 4692.00    1.04427   1.03115   -1.000
 4693.00    1.05150   1.03404   -1.000
 4694.00    1.05634   1.03715   -1.000
 4695.00    1.06344   1.03890   -1.000
 4696.00    1.06830   1.03744   -1.000
 4697.00    1.05769   1.03126   -1.000
 4698.00    1.04551   1.02241   -1.000
 4699.00    1.03930   1.01465   -1.000
 4700.00    1.04407   1.00886   -1.000
 4701.00    1.04530   1.00359   -1.000
 4702.00    1.02970   0.99889   -1.000
 4703.00    1.02626   0.99776   -1.000
 4704.00    1.02587   1.00195   -1.000
 4705.00    1.04363   1.00731   -1.000
 4706.00    1.03653   1.00795   -1.000
 4707.00    1.02767   1.00318   -1.000
 4708.00    1.02195   0.99848   -1.000
 4709.00    1.02150   0.99974   -1.000
 4710.00    1.03537   1.00709   -1.000
 4711.00    1.03997   1.01556   -1.000
 4712.00    1.04812   1.01965   -1.000
 4713.00    1.04348   1.01811   -1.000
 4714.00    1.04629   1.01526   -1.000
 4715.00    1.03998   1.01652   -1.000
 4716.00    1.04338   1.02292   -1.000
 4717.00    1.04742   1.03047   -1.000
 4718.00    1.05130   1.03560   -1.000
 4719.00    1.05926   1.03807   -1.000
 4720.00    1.05758   1.03854   -1.000
 4721.00    1.05698   1.03772   -1.000
 4722.00    1.05430   1.03732   -1.000
 4723.00    1.05570   1.03905   -1.000
 4724.00    1.06122   1.04173   -1.000
 4725.00    1.06297   1.04162   -1.000
 4726.00    1.05450   1.03648   -1.000
 4727.00    1.04399   1.02735   -1.000
 4728.00    1.04012   1.01804   -1.000
 4729.00    1.04412   1.01170   -1.000
 4730.00    1.04380   1.00845   -1.000
 4731.00    1.03935   1.00865   -1.000
 4732.00    1.04371   1.01289   -1.000
 4733.00    1.04702   1.01850   -1.000
 4734.00    1.04318   1.02163   -1.000
 4735.00    1.04087   1.02109   -1.000
 4736.00    1.03994   1.01904   -1.000
 4737.00    1.03574   1.01859   -1.000
 4738.00    1.04505   1.02035   -1.000
 4739.00    1.05563   1.02246   -1.000
 4740.00    1.04714   1.02377   -1.000
 4741.00    1.04281   1.02514   -1.000
 4742.00    1.04561   1.02774   -1.000
 4743.00    1.05811   1.03118   -1.000
 4744.00    1.05748   1.03417   -1.000
 4745.00    1.04979   1.03659   -1.000
 4746.00    1.05461   1.03938   -1.000
 4747.00    1.05547   1.04314   -1.000
 4748.00    1.05423   1.04701  277.344
 4749.00    1.05464   1.04992  277.790
 4750.00    1.05432   1.05189  277.969
 4751.00    1.05234   1.05211  280.033
 4752.00    1.05237   1.04942  283.245
 4753.00    1.04645   1.04458  285.607
 4754.00    1.04656   1.03996  287.556
 4755.00    1.04371   1.03766  287.004
 4756.00    1.04318   1.03845  288.154
 4757.00    1.03714   1.04126  290.320
 4758.00    1.04320   1.04405  290.605
 4759.00    1.04682   1.04502  288.136
 4760.00    1.04511   1.04209  287.646
 4761.00    1.03756   1.03372  292.242
 4762.00    1.02498   1.02181  299.643
 4763.00    1.01971   1.01139  303.442
 4764.00    1.02543   1.00680   -1.000
 4765.00    1.02326   1.00896   -1.000
 4766.00    1.03257   1.01612   -1.000
 4767.00    1.04079   1.02608   -1.000
 4768.00    1.04505   1.03673  290.006
 4769.00    1.04452   1.04493  286.024
 4770.00    1.04977   1.04756  286.581
 4771.00    1.04768   1.04521  289.056
 4772.00    1.04240   1.04241  291.624
 4773.00    1.04273   1.04347  288.150
 4774.00    1.04414   1.04833  281.914
 4775.00    1.05505   1.05301  280.052
 4776.00    1.05848   1.05496  280.310
 4777.00    1.05484   1.05402  281.148
 4778.00    1.05070   1.05004  283.005
 4779.00    1.04167   1.04436  286.224
 4780.00    1.03652   1.04078  287.890
 4781.00    1.03919   1.04090  288.595
 4782.00    1.04503   1.04154  290.020
 4783.00    1.04265   1.03998  292.384
 4784.00    1.03362   1.03697  292.223
 4785.00    1.03358   1.03333  293.226
 4786.00    1.03188   1.02949  296.191
 4787.00    1.02624   1.02729  297.881
 4788.00    1.02932   1.02775  297.550
 4789.00    1.03211   1.03000  296.064
 4790.00    1.04020   1.03387  294.230
 4791.00    1.04585   1.04003  291.136
 4792.00    1.04320   1.04811  286.325
 4793.00    1.05062   1.05673  279.900
 4794.00    1.05197   1.06351  275.118
 4795.00    1.05393   1.06550  274.164
 4796.00    1.05725   1.06169  276.991
 4797.00    1.05679   1.05402  282.647
 4798.00    1.04490   1.04623  287.942
 4799.00    1.04152   1.04238  291.339
 4800.00    1.04364   1.04444  288.701
 4801.00    1.04668   1.05053  282.788
 4802.00    1.05453   1.05547  278.747
 4803.00    1.05376   1.05392  279.225
 4804.00    1.03969   1.04610  283.026
 4805.00    1.03874   1.03834  286.652
 4806.00    1.04316   1.03564  289.246
 4807.00    1.04560   1.03777  289.133
 4808.00    1.04853   1.04189  288.395
 4809.00    1.04347   1.04540  287.089
 4810.00    1.04852   1.04706  284.459
 4811.00    1.04790   1.04761  282.430
 4812.00    1.04887   1.04917  280.992
 4813.00    1.05717   1.05273  280.731
 4814.00    1.05337   1.05695  280.040
 4815.00    1.06009   1.06012  279.028
 4816.00    1.05467   1.06216  277.254
 4817.00    1.05534   1.06335  275.536
 4818.00    1.05745   1.06323  274.424
 4819.00    1.05546   1.06180  274.339
 4820.00    1.05650   1.05886  274.353
 4821.00    1.05053   1.05259  276.807
 4822.00    1.03968   1.04182  284.219
 4823.00    1.03038   1.02972  289.621
 4824.00    1.02446   1.02290  289.002
 4825.00    1.03606   1.02473   -1.000
 4826.00    1.05474   1.03123   -1.000
 4827.00    1.05062   1.03593   -1.000
 4828.00    1.04729   1.03623   -1.000
 4829.00    1.04565   1.03393   -1.000
 4830.00    1.03968   1.03134  285.678
 4831.00    1.03987   1.02888   -1.000
 4832.00    1.03955   1.02710   -1.000
 4833.00    1.04021   1.02707   -1.000
 4834.00    1.04470   1.02826   -1.000
 4835.00    1.04662   1.02898   -1.000
 4836.00    1.04233   1.02843   -1.000
 4837.00    1.03698   1.02693   -1.000
 4838.00    1.03262   1.02409  285.077
 4839.00    1.02549   1.01981  290.216
 4840.00    1.02161   1.01601  290.339
 4841.00    1.02253   1.01430  289.711
 4842.00    1.02440   1.01393   -1.000
 4843.00    1.02965   1.01372   -1.000
 4844.00    1.03421   1.01374   -1.000
 4845.00    1.03043   1.01410   -1.000
 4846.00    1.02541   1.01266   -1.000
 4847.00    1.02624   1.00704   -1.000
 4848.00    1.01369   0.99969   -1.000
 4849.00    1.00758   0.99541   -1.000
 4850.00    1.01623   0.99461   -1.000
 4851.00    1.00920   0.99336   -1.000
 4852.00    0.99802   0.98750   -1.000
 4853.00    0.99138   0.97439   -1.000
 4854.00    0.97538   0.95449   -1.000
 4855.00    0.96064   0.93303   -1.000
 4856.00    0.93935   0.91488   -1.000
 4857.00    0.92908   0.89564   -1.000
 4858.00    0.90597   0.86172   -1.000
 4859.00    0.83050   0.80260   -1.000
 4860.00    0.73819   0.73066   -1.000
 4861.00    0.68394   0.68232  392.632
 4862.00    0.71572   0.68866   -1.000
 4863.00    0.80060   0.74382   -1.000
 4864.00    0.87301   0.81177   -1.000
 4865.00    0.91800   0.86577   -1.000
 4866.00    0.94010   0.90252   -1.000
 4867.00    0.96220   0.92778   -1.000
 4868.00    0.97160   0.94415   -1.000
 4869.00    0.97527   0.95006   -1.000
 4870.00    0.96561   0.94557   -1.000
 4871.00    0.95323   0.93779   -1.000
 4872.00    0.95448   0.93750   -1.000
 4873.00    0.97880   0.94856   -1.000
 4874.00    0.99686   0.96426   -1.000
 4875.00    1.00569   0.97608   -1.000
 4876.00    1.00759   0.98186   -1.000
 4877.00    1.00011   0.98547   -1.000
 4878.00    1.00634   0.99178   -1.000
 4879.00    1.01975   1.00165   -1.000
 4880.00    1.02196   1.01078   -1.000
 4881.00    1.01803   1.01345  291.011
 4882.00    1.01562   1.00931  292.752
 4883.00    1.01547   1.00350   -1.000
 4884.00    1.01464   0.99976   -1.000
 4885.00    1.00921   0.99868   -1.000
 4886.00    1.00949   0.99928   -1.000
 4887.00    1.01824   0.99964   -1.000
 4888.00    1.01703   0.99696   -1.000
 4889.00    1.00548   0.98939   -1.000
 4890.00    0.98445   0.97978  308.623
 4891.00    0.97515   0.97691  306.604
 4892.00    0.99937   0.98831   -1.000
 4893.00    1.02782   1.01046   -1.000
 4894.00    1.04786   1.03241   -1.000
 4895.00    1.05539   1.04703  267.125
 4896.00    1.05862   1.05361  265.827
 4897.00    1.05506   1.05390  266.397
 4898.00    1.04521   1.04928  272.184
 4899.00    1.03685   1.04166  278.658
 4900.00    1.03437   1.03492  281.761
 4901.00    1.03387   1.03161  280.395
 4902.00    1.03267   1.03002  280.776
 4903.00    1.02898   1.02874  284.260
 4904.00    1.02709   1.03092  281.201
 4905.00    1.03979   1.03834  275.148
 4906.00    1.05291   1.04568  272.983
 4907.00    1.04771   1.04635  275.492
 4908.00    1.03606   1.03960  282.159
 4909.00    1.02960   1.02871  290.366
 4910.00    1.02276   1.01856  294.099
 4911.00    1.02470   1.01439   -1.000
 4912.00    1.03384   1.01834   -1.000
 4913.00    1.04297   1.02738   -1.000
 4914.00    1.04693   1.03666   -1.000
 4915.00    1.04688   1.04179  274.943
 4916.00    1.04757   1.03831  276.224
 4917.00    1.03446   1.02328   -1.000
 4918.00    1.00585   0.99913  301.595
 4919.00    0.98681   0.97465   -1.000
 4920.00    0.97436   0.95998   -1.000
 4921.00    0.98120   0.95924   -1.000
 4922.00    0.99573   0.96671   -1.000
 4923.00    0.99994   0.97392   -1.000
 4924.00    1.00250   0.98065   -1.000
 4925.00    1.01482   0.99239   -1.000
 4926.00    1.02951   1.00897   -1.000
 4927.00    1.04228   1.02477   -1.000
 4928.00    1.04752   1.03629   -1.000
 4929.00    1.04958   1.04319  272.563
 4930.00    1.05560   1.04463   -1.000
 4931.00    1.05116   1.03851   -1.000
 4932.00    1.03372   1.02455  280.998
 4933.00    1.01321   1.00786  291.266
 4934.00    1.00545   0.99805  292.107
 4935.00    1.01704   0.99914   -1.000
 4936.00    1.02662   1.00325   -1.000
 4937.00    1.02406   1.00080   -1.000
 4938.00    1.00932   0.99354   -1.000
 4939.00    1.00205   0.99153   -1.000
 4940.00    1.01649   1.00059   -1.000
 4941.00    1.02969   1.01742   -1.000
 4942.00    1.04314   1.03376  275.912
 4943.00    1.05050   1.04363  273.360
 4944.00    1.04754   1.04627  273.531
 4945.00    1.04185   1.04413  275.479
 4946.00    1.03870   1.04138  276.095
 4947.00    1.04407   1.04160  273.631
 4948.00    1.04504   1.04511  270.379
 4949.00    1.04213   1.04900  269.538
 4950.00    1.04406   1.05053  268.404
 4951.00    1.04430   1.04952  269.781
 4952.00    1.04918   1.04718  271.636
 4953.00    1.04613   1.04413  274.777
 4954.00    1.04469   1.03810  278.207
 4955.00    1.03368   1.02388   -1.000
 4956.00    1.00561   1.00053  300.359
 4957.00    0.97371   0.97950  312.579
 4958.00    0.98134   0.97694  306.536
 4959.00    1.01242   0.99498   -1.000
 4960.00    1.03730   1.01967   -1.000
 4961.00    1.04196   1.03742  276.701
 4962.00    1.04221   1.04506  277.961
 4963.00    1.04410   1.04522  280.178
 4964.00    1.03689   1.04002  283.490
 4965.00    1.02826   1.03153  289.505
 4966.00    1.02965   1.02364  293.307
 4967.00    1.03107   1.01939   -1.000
 4968.00    1.03156   1.01858   -1.000
 4969.00    1.03282   1.02052   -1.000
 4970.00    1.03419   1.02504  287.323
 4971.00    1.03372   1.03075  284.239
 4972.00    1.04124   1.03598  280.839
 4973.00    1.04757   1.03979  278.178
 4974.00    1.04604   1.04152  277.024
 4975.00    1.04899   1.04089  278.918
 4976.00    1.04449   1.03774  281.853
 4977.00    1.03847   1.03239  285.681
 4978.00    1.03568   1.02649  290.344
 4979.00    1.02809   1.02026  293.942
 4980.00    1.02168   1.01042   -1.000
 4981.00    1.00487   0.99504   -1.000
 4982.00    0.98700   0.97788   -1.000
 4983.00    0.98361   0.96689   -1.000
 4984.00    0.98418   0.96766   -1.000
 4985.00    0.99930   0.97903   -1.000
 4986.00    1.01817   0.99575   -1.000
 4987.00    1.02724   1.01177   -1.000
 4988.00    1.03025   1.02090  286.594
 4989.00    1.02138   1.02021  290.786
 4990.00    1.01574   1.01316  293.811
 4991.00    1.00750   1.00661  293.986
 4992.00    1.01795   1.00500   -1.000
 4993.00    1.02063   1.00770   -1.000
 4994.00    1.01622   1.01254  289.988
 4995.00    1.02185   1.01832  288.508
 4996.00    1.02720   1.02255  287.068
 4997.00    1.02783   1.02134  288.765
 4998.00    1.02302   1.01208   -1.000
 4999.00    1.01625   0.99681   -1.000
 5000.00    1.00600   0.98432   -1.000
 5001.00    1.00368   0.98184   -1.000
 5002.00    1.00559   0.98628   -1.000
 5003.00    1.02068   0.98975   -1.000
 5004.00    1.00884   0.98653   -1.000
 5005.00    0.99641   0.97719   -1.000
 5006.00    0.98375   0.96969   -1.000
 5007.00    0.98855   0.97245   -1.000
 5008.00    1.00767   0.98431   -1.000
 5009.00    1.02560   0.99540   -1.000
 5010.00    1.02076   0.99740   -1.000
 5011.00    1.01062   0.98911   -1.000
 5012.00    0.99194   0.97562   -1.000
 5013.00    0.97779   0.96444   -1.000
 5014.00    0.97628   0.96097   -1.000
 5015.00    0.98001   0.96421   -1.000
 5016.00    0.98955   0.96725   -1.000
 5017.00    0.99676   0.96473   -1.000
 5018.00    0.99362   0.96043   -1.000
 5019.00    0.99300   0.96316   -1.000
 5020.00    1.00344   0.97375   -1.000
 5021.00    1.01353   0.98445   -1.000
 5022.00    1.01108   0.99118   -1.000
 5023.00    1.00983   0.99664   -1.000
 5024.00    1.01437   1.00324   -1.000
 5025.00    1.02165   1.00867   -1.000
 5026.00    1.02292   1.00987   -1.000
 5027.00    1.01324   1.00800  298.397
 5028.00    1.01684   1.00675   -1.000
 5029.00    1.02841   1.00780   -1.000
 5030.00    1.03077   1.01080   -1.000
 5031.00    1.03151   1.01581   -1.000
 5032.00    1.03650   1.02184   -1.000
 5033.00    1.04162   1.02445   -1.000
 5034.00    1.02861   1.01969  287.350
 5035.00    1.01394   1.00954  298.799
 5036.00    1.00094   1.00031  303.864
 5037.00    1.00251   0.99473  304.982
 5038.00    1.00096   0.98781   -1.000
 5039.00    0.98424   0.97380   -1.000
 5040.00    0.96618   0.95632   -1.000
 5041.00    0.95472   0.94771  334.257
 5042.00    0.97109   0.95652   -1.000
 5043.00    1.00101   0.97872   -1.000
 5044.00    1.02489   1.00308   -1.000
 5045.00    1.03167   1.02098   -1.000
 5046.00    1.04765   1.02907   -1.000
 5047.00    0.91008   1.02679   -1.000
 5048.00    0.14767   1.01586   -1.000
 5049.00    0.02381   1.00110   -1.000
 5050.00    0.81086   0.98831   -1.000
 5051.00    1.02013   0.98190   -1.000
 5052.00    1.01122   0.98546   -1.000
 5053.00    1.02793   0.99877   -1.000
 5054.00    1.03642   1.01472   -1.000
 5055.00    1.04034   1.02569   -1.000
 5056.00    1.04482   1.03077   -1.000
 5057.00    1.04484   1.03312   -1.000
 5058.00    1.04074   1.03508  278.282
 5059.00    1.03544   1.03709  278.179
 5060.00    1.03626   1.03862  276.294
 5061.00    1.03527   1.03856  276.428
 5062.00    1.03740   1.03476  280.130
 5063.00    1.03493   1.02546   -1.000
 5064.00    1.01828   1.01295  298.589
 5065.00    1.00946   1.00333  302.110
 5066.00    1.01440   1.00022   -1.000
 5067.00    1.01739   1.00145   -1.000
 5068.00    1.01976   1.00328   -1.000
 5069.00    1.01769   1.00495   -1.000
 5070.00    1.02609   1.00652   -1.000
 5071.00    1.02961   1.00647   -1.000
 5072.00    1.02026   1.00413   -1.000
 5073.00    1.02531   1.00167   -1.000
 5074.00    1.02502   1.00104   -1.000
 5075.00    1.02346   1.00170   -1.000
 5076.00    1.02164   1.00111   -1.000
 5077.00    1.02242   0.99567   -1.000
 5078.00    1.00931   0.98398   -1.000
 5079.00    0.99253   0.97116   -1.000
 5080.00    0.98240   0.96555   -1.000
 5081.00    0.99064   0.96899   -1.000
 5082.00    1.00139   0.97625   -1.000
 5083.00    1.00655   0.98369   -1.000
 5084.00    1.01909   0.99185   -1.000
 5085.00    1.03425   1.00056   -1.000
 5086.00    1.03232   1.00735   -1.000
 5087.00    1.03285   1.01109   -1.000
 5088.00    1.03710   1.01333   -1.000
 5089.00    1.03230   1.01590   -1.000
 5090.00    1.03328   1.01905   -1.000
 5091.00    1.04245   1.02236   -1.000
 5092.00    1.04225   1.02584   -1.000
 5093.00    1.04357   1.02866   -1.000
 5094.00    1.03947   1.02855   -1.000
 5095.00    1.03544   1.02331   -1.000
 5096.00    1.03068   1.01278   -1.000
 5097.00    1.01755   0.99953   -1.000
 5098.00    1.00643   0.98828   -1.000
 5099.00    1.00464   0.98439   -1.000
 5100.00    1.01901   0.99002   -1.000
 5101.00    1.03349   1.00106   -1.000
 5102.00    1.03445   1.01063   -1.000
 5103.00    1.03451   1.01479   -1.000
 5104.00    1.03192   1.01352   -1.000
 5105.00    1.02484   1.00757   -1.000
 5106.00    1.01034   0.99788   -1.000
 5107.00    1.00456   0.98769   -1.000
 5108.00    1.00048   0.98166   -1.000
 5109.00    0.99939   0.98159   -1.000
 5110.00    1.00567   0.98663   -1.000
 5111.00    1.01727   0.99568   -1.000
 5112.00    1.03234   1.00643   -1.000
 5113.00    1.03918   1.01536   -1.000
 5114.00    1.04302   1.02091   -1.000
 5115.00    1.04514   1.02434   -1.000
 5116.00    1.04186   1.02750   -1.000
 5117.00    1.04199   1.03035   -1.000
 5118.00    1.04502   1.03095   -1.000
 5119.00    1.04410   1.02779   -1.000
 5120.00    1.03801   1.02103   -1.000
 5121.00    1.02746   1.01172   -1.000
 5122.00    1.01363   1.00097   -1.000
 5123.00    1.00238   0.99084   -1.000
 5124.00    0.99753   0.98442   -1.000
 5125.00    1.00746   0.98290   -1.000
 5126.00    1.01421   0.98350   -1.000
 5127.00    1.00628   0.98304   -1.000
 5128.00    1.00580   0.98169   -1.000
 5129.00    1.00154   0.98208   -1.000
 5130.00    1.01107   0.98584   -1.000
 5131.00    1.01807   0.99170   -1.000
 5132.00    1.02665   0.99715   -1.000
 5133.00    1.02379   1.00134   -1.000
 5134.00    1.02388   1.00445   -1.000
 5135.00    1.02687   1.00513   -1.000
 5136.00    1.02063   1.00112   -1.000
 5137.00    1.00350   0.99245   -1.000
 5138.00    0.99684   0.98278   -1.000
 5139.00    0.99127   0.97687   -1.000
 5140.00    0.99393   0.97643   -1.000
 5141.00    0.99895   0.97872   -1.000
 5142.00    0.99866   0.98083   -1.000
 5143.00    0.99920   0.98382   -1.000
 5144.00    1.00997   0.98874   -1.000
 5145.00    1.01481   0.99276   -1.000
 5146.00    1.01239   0.99328   -1.000
 5147.00    1.00782   0.99197   -1.000
 5148.00    1.00932   0.99123   -1.000
 5149.00    1.01787   0.99010   -1.000
 5150.00    1.00938   0.98627   -1.000
 5151.00    0.99812   0.98045   -1.000
 5152.00    1.00061   0.97624   -1.000
 5153.00    1.00610   0.97623   -1.000
 5154.00    1.01165   0.98074   -1.000
 5155.00    1.01897   0.98937   -1.000
 5156.00    1.03107   1.00028   -1.000
 5157.00    1.03913   1.00991   -1.000
 5158.00    1.04205   1.01580   -1.000
 5159.00    1.04230   1.01778   -1.000
 5160.00    1.03548   1.01656   -1.000
 5161.00    1.03167   1.01277   -1.000
 5162.00    1.02877   1.00702   -1.000
 5163.00    1.03002   0.99842   -1.000
 5164.00    1.02175   0.98200   -1.000
 5165.00    0.98804   0.95154   -1.000
 5166.00    0.93375   0.90963   -1.000
 5167.00    0.90309   0.87284   -1.000
 5168.00    0.89992   0.85940   -1.000
 5169.00    0.93057   0.86955   -1.000
 5170.00    0.95091   0.88355   -1.000
 5171.00    0.94090   0.88392   -1.000
 5172.00    0.91277   0.87730   -1.000
 5173.00    0.92072   0.88519   -1.000
 5174.00    0.96581   0.91612   -1.000
 5175.00    1.01200   0.95584   -1.000
 5176.00    1.03644   0.98587   -1.000
 5177.00    1.03985   1.00117   -1.000
 5178.00    1.03436   1.00621   -1.000
 5179.00    1.03530   1.00372   -1.000
 5180.00    1.03284   0.99064   -1.000
 5181.00    1.00540   0.96252   -1.000
 5182.00    0.96423   0.92310   -1.000
 5183.00    0.92171   0.88981   -1.000
 5184.00    0.92369   0.88313   -1.000
 5185.00    0.96675   0.90634   -1.000
 5186.00    1.00458   0.94026   -1.000
 5187.00    1.01242   0.96423   -1.000
 5188.00    1.01400   0.97379   -1.000
 5189.00    1.01520   0.97502   -1.000
 5190.00    1.01001   0.97153   -1.000
 5191.00    0.99545   0.96376   -1.000
 5192.00    0.97896   0.95586   -1.000
 5193.00    0.97934   0.95374   -1.000
 5194.00    0.98974   0.95748   -1.000
 5195.00    0.99632   0.96283   -1.000
 5196.00    1.00405   0.96796   -1.000
 5197.00    1.01709   0.97426   -1.000
 5198.00    1.02479   0.98243   -1.000
 5199.00    1.02597   0.99075   -1.000
 5200.00    1.02654   0.99595   -1.000
 5201.00    1.02322   0.99522   -1.000
 5202.00    1.01990   0.98730   -1.000
 5203.00    1.01028   0.97291   -1.000
 5204.00    0.98809   0.95558   -1.000
 5205.00    0.97534   0.94139   -1.000
 5206.00    0.97421   0.93464   -1.000
 5207.00    0.97702   0.93410   -1.000
 5208.00    0.98044   0.93656   -1.000
 5209.00    0.99028   0.94291   -1.000
 5210.00    1.00538   0.95615   -1.000
 5211.00    1.01825   0.97431   -1.000
 5212.00    1.03397   0.99055   -1.000
 5213.00    1.04379   0.99836   -1.000
 5214.00    1.03119   0.99549   -1.000
 5215.00    1.01777   0.98598   -1.000
 5216.00    1.00444   0.97850   -1.000
 5217.00    1.00836   0.97994   -1.000
 5218.00    1.02520   0.99009   -1.000
 5219.00    1.04041   1.00300   -1.000
 5220.00    1.04544   1.01280   -1.000
 5221.00    1.04671   1.01700   -1.000
 5222.00    1.04805   1.01480   -1.000
 5223.00    1.03439   1.00465   -1.000
 5224.00    1.01311   0.98490   -1.000
 5225.00    0.98579   0.95789   -1.000
 5226.00    0.96283   0.93406   -1.000
 5227.00    0.95588   0.92733   -1.000
 5228.00    0.98195   0.94164   -1.000
 5229.00    1.01453   0.96528   -1.000
 5230.00    1.02770   0.98218   -1.000
 5231.00    1.02446   0.98523   -1.000
 5232.00    1.01870   0.97792   -1.000
 5233.00    1.01130   0.96915   -1.000
 5234.00    1.00946   0.96762   -1.000
 5235.00    1.01945   0.97596   -1.000
 5236.00    1.03307   0.98948   -1.000
 5237.00    1.04316   1.00153   -1.000
 5238.00    1.04399   1.00865   -1.000
 5239.00    1.04335   1.01133   -1.000
 5240.00    1.04754   1.01176   -1.000
 5241.00    1.04594   1.01145   -1.000
 5242.00    1.04315   1.01127   -1.000
 5243.00    1.04464   1.01192   -1.000
 5244.00    1.04068   1.01266   -1.000
 5245.00    1.04037   1.01061   -1.000
 5246.00    1.03614   1.00396   -1.000
 5247.00    1.01923   0.99521   -1.000
 5248.00    1.01093   0.98816   -1.000
 5249.00    1.00832   0.98395   -1.000
 5250.00    0.99962   0.98213   -1.000
 5251.00    1.00011   0.98304   -1.000
 5252.00    1.01561   0.98601   -1.000
 5253.00    1.02400   0.98837   -1.000
 5254.00    1.01907   0.98921   -1.000
 5255.00    1.02786   0.99164   -1.000
 5256.00    1.03429   0.99867   -1.000
 5257.00    1.04262   1.00839   -1.000
 5258.00    1.04805   1.01510   -1.000
 5259.00    1.04043   1.01393   -1.000
 5260.00    1.02752   1.00326   -1.000
 5261.00    1.01058   0.98476   -1.000
 5262.00    0.99151   0.96284   -1.000
 5263.00    0.97432   0.94273   -1.000
 5264.00    0.97081   0.92851   -1.000
 5265.00    0.96836   0.92256   -1.000
 5266.00    0.97236   0.92357   -1.000
 5267.00    0.98332   0.92484   -1.000
 5268.00    0.97492   0.91905   -1.000
 5269.00    0.94855   0.90860   -1.000
 5270.00    0.94486   0.90648   -1.000
 5271.00    0.97009   0.92073   -1.000
 5272.00    1.00715   0.94300   -1.000
 5273.00    1.01250   0.95876   -1.000
 5274.00    1.00964   0.96427   -1.000
 5275.00    1.01184   0.96672   -1.000
 5276.00    1.01726   0.97393   -1.000
 5277.00    1.02773   0.98687   -1.000
 5278.00    1.04575   0.99916   -1.000
 5279.00    1.04187   1.00348   -1.000
 5280.00    1.03250   0.99813   -1.000
 5281.00    1.02369   0.98711   -1.000
 5282.00    1.01190   0.97619   -1.000
 5283.00    1.00307   0.97098   -1.000
 5284.00    1.00697   0.97567   -1.000
 5285.00    1.02444   0.98955   -1.000
 5286.00    1.03783   1.00598   -1.000
 5287.00    1.04913   1.01762   -1.000
 5288.00    1.05402   1.02281   -1.000
 5289.00    1.05368   1.02458   -1.000
 5290.00    1.05348   1.02509   -1.000
 5291.00    1.04751   1.02428   -1.000
 5292.00    1.04298   1.02232   -1.000
 5293.00    1.04517   1.01967   -1.000
 5294.00    1.04044   1.01511   -1.000
 5295.00    1.02921   1.00645   -1.000
 5296.00    1.02063   0.99373   -1.000
 5297.00    1.01260   0.98144   -1.000
 5298.00    1.00936   0.97584   -1.000
 5299.00    1.01614   0.97866   -1.000
 5300.00    1.02076   0.98564   -1.000
 5301.00    1.02605   0.99210   -1.000
 5302.00    1.02854   0.99771   -1.000
 5303.00    1.02744   1.00432   -1.000
 5304.00    1.03440   1.01105   -1.000
 5305.00    1.04015   1.01466   -1.000
 5306.00    1.03627   1.01427   -1.000
 5307.00    1.03389   1.01269   -1.000
 5308.00    1.03541   1.01330   -1.000
 5309.00    1.04577   1.01663   -1.000
 5310.00    1.05099   1.02017   -1.000
 5311.00    1.05153   1.02144   -1.000
 5312.00    1.04387   1.01981   -1.000
 5313.00    1.04236   1.01534   -1.000
 5314.00    1.03764   1.00782   -1.000
 5315.00    1.03046   0.99818   -1.000
 5316.00    1.01967   0.99027   -1.000
 5317.00    1.02181   0.98893   -1.000
 5318.00    1.03261   0.99491   -1.000
 5319.00    1.03492   1.00328   -1.000
 5320.00    1.03662   1.00807   -1.000
 5321.00    1.03723   1.00634   -1.000
 5322.00    1.02823   0.99854   -1.000
 5323.00    1.01289   0.98780   -1.000
 5324.00    1.00580   0.97795   -1.000
 5325.00    1.00727   0.96876   -1.000
 5326.00    1.00071   0.95526   -1.000
 5327.00    0.97276   0.93688   -1.000
 5328.00    0.95045   0.92429   -1.000
 5329.00    0.96872   0.92995   -1.000
 5330.00    1.00633   0.95200   -1.000
 5331.00    1.02530   0.97557   -1.000
 5332.00    1.02556   0.98973   -1.000
 5333.00    1.02745   0.99527   -1.000
 5334.00    1.03232   0.99711   -1.000
 5335.00    1.03540   0.99714   -1.000
 5336.00    1.02950   0.99524   -1.000
 5337.00    1.02070   0.99158   -1.000
 5338.00    1.02023   0.98586   -1.000
 5339.00    1.01052   0.97820   -1.000
 5340.00    1.00104   0.97196   -1.000
 5341.00    0.99946   0.97242   -1.000
 5342.00    1.01391   0.98043   -1.000
 5343.00    1.03211   0.99008   -1.000
 5344.00    1.03289   0.99494   -1.000
 5345.00    1.02337   0.99391   -1.000
 5346.00    1.02281   0.98989   -1.000
 5347.00    1.02213   0.98584   -1.000
 5348.00    1.02014   0.98346   -1.000
 5349.00    1.01936   0.98412   -1.000
 5350.00    1.02620   0.98878   -1.000
 5351.00    1.03358   0.99601   -1.000
 5352.00    1.03755   1.00274   -1.000
 5353.00    1.03440   1.00772   -1.000
 5354.00    1.03987   1.01210   -1.000
 5355.00    1.04747   1.01678   -1.000
 5356.00    1.04894   1.02067   -1.000
 5357.00    1.04485   1.02249   -1.000
 5358.00    1.04631   1.02219   -1.000
 5359.00    1.05294   1.01994   -1.000
 5360.00    1.04586   1.01536   -1.000
 5361.00    1.03676   1.00838   -1.000
 5362.00    1.02758   1.00018   -1.000
 5363.00    1.02696   0.99272   -1.000
 5364.00    1.02469   0.98752   -1.000
 5365.00    1.01848   0.98519   -1.000
 5366.00    1.02051   0.98493   -1.000
 5367.00    1.02826   0.98397   -1.000
 5368.00    1.02074   0.97891   -1.000
 5369.00    1.00191   0.96854   -1.000
 5370.00    0.98886   0.95649   -1.000
 5371.00    0.98712   0.95087   -1.000
 5372.00    1.00234   0.95799   -1.000
 5373.00    1.02021   0.97533   -1.000
 5374.00    1.03719   0.99349   -1.000
 5375.00    1.04797   1.00508   -1.000
 5376.00    1.04937   1.00939   -1.000
 5377.00    1.05064   1.00955   -1.000
 5378.00    1.04625   1.00769   -1.000
 5379.00    1.03658   1.00390   -1.000
 5380.00    1.03392   0.99844   -1.000
 5381.00    1.02385   0.99303   -1.000
 5382.00    1.02206   0.98975   -1.000
 5383.00    1.02642   0.98986   -1.000
 5384.00    1.02939   0.99344   -1.000
 5385.00    1.03712   0.99923   -1.000
 5386.00    1.04505   1.00447   -1.000
 5387.00    1.04029   1.00633   -1.000
 5388.00    1.03589   1.00390   -1.000
 5389.00    1.03903   0.99835   -1.000
 5390.00    1.03350   0.99184   -1.000
 5391.00    1.02792   0.98610   -1.000
 5392.00    1.01977   0.98176   -1.000
 5393.00    1.01252   0.97878   -1.000
 5394.00    1.00896   0.97557   -1.000
 5395.00    1.00584   0.96939   -1.000
 5396.00    0.99791   0.96065   -1.000
 5397.00    0.98901   0.95537   -1.000
 5398.00    1.00465   0.95907   -1.000
 5399.00    1.02290   0.96966   -1.000
 5400.00    1.02820   0.97992   -1.000
 5401.00    1.03558   0.98423   -1.000
 5402.00    1.02798   0.98049   -1.000
 5403.00    1.01184   0.96885   -1.000
 5404.00    0.99090   0.95337   -1.000
 5405.00    0.97915   0.94238   -1.000
 5406.00    0.98674   0.94212   -1.000
 5407.00    1.00314   0.95019   -1.000
 5408.00    1.00911   0.95808   -1.000
 5409.00    1.00430   0.96109   -1.000
 5410.00    1.00348   0.96293   -1.000
 5411.00    1.01358   0.96869   -1.000
 5412.00    1.02836   0.97696   -1.000
 5413.00    1.03031   0.98253   -1.000
 5414.00    1.02032   0.98409   -1.000
 5415.00    1.01913   0.98507   -1.000
 5416.00    1.02469   0.98813   -1.000
 5417.00    1.02735   0.99197   -1.000
 5418.00    1.03144   0.99402   -1.000
 5419.00    1.03024   0.99391   -1.000
 5420.00    1.02876   0.99271   -1.000
 5421.00    1.02622   0.99061   -1.000
 5422.00    1.02621   0.98686   -1.000
 5423.00    1.02383   0.98197   -1.000
 5424.00    1.01167   0.97902   -1.000
 5425.00    1.01815   0.98120   -1.000
 5426.00    1.03335   0.98664   -1.000
 5427.00    1.03415   0.98809   -1.000
 5428.00    1.01533   0.98114   -1.000
 5429.00    0.99580   0.97079   -1.000
 5430.00    0.99390   0.96578   -1.000
 5431.00    1.00292   0.96758   -1.000
 5432.00    1.00618   0.96937   -1.000
 5433.00    0.99698   0.96614   -1.000
 5434.00    0.99237   0.96142   -1.000
 5435.00    0.99295   0.96256   -1.000
 5436.00    1.01151   0.97202   -1.000
 5437.00    1.02345   0.98569   -1.000
 5438.00    1.03559   0.99792   -1.000
 5439.00    1.04514   1.00573   -1.000
 5440.00    1.03824   1.00944   -1.000
 5441.00    1.03493   1.01048   -1.000
 5442.00    1.03817   1.00886   -1.000
 5443.00    1.03016   1.00267   -1.000
 5444.00    1.01416   0.99002   -1.000
 5445.00    0.99931   0.97273   -1.000
 5446.00    0.98730   0.95812   -1.000
 5447.00    0.98356   0.95466   -1.000
 5448.00    1.00209   0.96419   -1.000
 5449.00    1.02442   0.97987   -1.000
 5450.00    1.03228   0.99262   -1.000
 5451.00    1.03439   0.99785   -1.000
 5452.00    1.03288   0.99501   -1.000
 5453.00    1.02443   0.98497   -1.000
 5454.00    1.00260   0.97096   -1.000
 5455.00    0.98535   0.96046   -1.000
 5456.00    0.99247   0.96133   -1.000
 5457.00    1.01698   0.97384   -1.000
 5458.00    1.03412   0.98949   -1.000
 5459.00    1.03482   0.99921   -1.000
 5460.00    1.03023   1.00013   -1.000
 5461.00    1.01947   0.99449   -1.000
 5462.00    1.01873   0.98661   -1.000
 5463.00    1.01724   0.98131   -1.000
 5464.00    1.02284   0.98154   -1.000
 5465.00    1.02253   0.98601   -1.000
 5466.00    1.02489   0.99106   -1.000
 5467.00    1.02655   0.99464   -1.000
 5468.00    1.03193   0.99696   -1.000
 5469.00    1.02843   0.99826   -1.000
 5470.00    1.02889   0.99786   -1.000
 5471.00    1.02736   0.99528   -1.000
 5472.00    1.02638   0.99108   -1.000
 5473.00    1.02372   0.98526   -1.000
 5474.00    1.01579   0.97683   -1.000
 5475.00    1.00047   0.96597   -1.000
 5476.00    0.98490   0.95676   -1.000
 5477.00    0.98785   0.95536   -1.000
 5478.00    0.99879   0.96316   -1.000
 5479.00    1.02003   0.97371   -1.000
 5480.00    1.01769   0.97984   -1.000
 5481.00    1.01241   0.98121   -1.000
 5482.00    1.01223   0.98248   -1.000
 5483.00    1.01484   0.98664   -1.000
 5484.00    1.02565   0.99237   -1.000
 5485.00    1.02522   0.99610   -1.000
 5486.00    1.02381   0.99561   -1.000
 5487.00    1.02089   0.99202   -1.000
 5488.00    1.01879   0.98859   -1.000
 5489.00    1.02221   0.98763   -1.000
 5490.00    1.02614   0.98906   -1.000
 5491.00    1.02199   0.99134   -1.000
 5492.00    1.02281   0.99299   -1.000
 5493.00    1.02421   0.99322   -1.000
 5494.00    1.02381   0.99184   -1.000
 5495.00    1.02317   0.98862   -1.000
 5496.00    1.01441   0.98396   -1.000
 5497.00    1.00445   0.98031   -1.000
 5498.00    1.01075   0.97999   -1.000
 5499.00    1.01533   0.98137   -1.000
 5500.00    1.00827   0.98035   -1.000
 5501.00    1.00226   0.97646   -1.000
 5502.00    1.00219   0.97390   -1.000
 5503.00    1.01099   0.97505   -1.000
 5504.00    1.01259   0.97652   -1.000
 5505.00    1.00894   0.97422   -1.000
 5506.00    1.00059   0.96973   -1.000
 5507.00    0.99926   0.96833   -1.000
 5508.00    1.00265   0.97217   -1.000
 5509.00    1.01555   0.97750   -1.000
 5510.00    1.01806   0.97931   -1.000
 5511.00    1.00753   0.97675   -1.000
 5512.00    1.00435   0.97264   -1.000
 5513.00    1.00980   0.97038   -1.000
 5514.00    1.01174   0.97172   -1.000
 5515.00    1.01351   0.97623   -1.000
 5516.00    1.02407   0.98236   -1.000
 5517.00    1.02852   0.98859   -1.000
 5518.00    1.03568   0.99365   -1.000
 5519.00    1.02443   0.99642   -1.000
 5520.00    1.02206   0.99679   -1.000
 5521.00    1.02291   0.99599   -1.000
 5522.00    1.03055   0.99522   -1.000
 5523.00    1.02530   0.99389   -1.000
 5524.00    1.02358   0.98970   -1.000
 5525.00    1.01262   0.98066   -1.000
 5526.00    1.00058   0.96769   -1.000
 5527.00    0.98911   0.95586   -1.000
 5528.00    0.98321   0.95162   -1.000
 5529.00    0.99352   0.95752   -1.000
 5530.00    1.01246   0.96941   -1.000
 5531.00    1.01881   0.97956   -1.000
 5532.00    1.01581   0.98292   -1.000
 5533.00    1.01012   0.98025   -1.000
 5534.00    1.00532   0.97611   -1.000
 5535.00    1.00724   0.97511   -1.000
 5536.00    1.00963   0.97853   -1.000
 5537.00    1.02369   0.98401   -1.000
 5538.00    1.02268   0.98877   -1.000
 5539.00    1.01631   0.99203   -1.000
 5540.00    1.02091   0.99390   -1.000
 5541.00    1.01913   0.99397   -1.000
 5542.00    1.01537   0.99188   -1.000
 5543.00    1.01681   0.98874   -1.000
 5544.00    1.01933   0.98660   -1.000
 5545.00    1.01942   0.98662   -1.000
 5546.00    1.01842   0.98848   -1.000
 5547.00    1.01861   0.99161   -1.000
 5548.00    1.02296   0.99556   -1.000
 5549.00    1.02613   0.99901   -1.000
 5550.00    1.02628   1.00032   -1.000
 5551.00    1.02068   0.99919   -1.000
 5552.00    1.02036   0.99666   -1.000
 5553.00    1.01982   0.99396   -1.000
 5554.00    1.01656   0.99212   -1.000
 5555.00    1.01668   0.99177   -1.000
 5556.00    1.01618   0.99259   -1.000
 5557.00    1.01951   0.99356   -1.000
 5558.00    1.02146   0.99418   -1.000
 5559.00    1.01752   0.99441   -1.000
 5560.00    1.01945   0.99366   -1.000
 5561.00    1.02316   0.99129   -1.000
 5562.00    1.01813   0.98796   -1.000
 5563.00    1.00819   0.98527   -1.000
 5564.00    1.00722   0.98385   -1.000
 5565.00    1.01079   0.98287   -1.000
 5566.00    1.00993   0.98138   -1.000
 5567.00    1.00533   0.97940   -1.000
 5568.00    0.99956   0.97737   -1.000
 5569.00    0.99319   0.97578   -1.000
 5570.00    0.99331   0.97459   -1.000
 5571.00    0.99601   0.97279   -1.000
 5572.00    0.99587   0.97059   -1.000
 5573.00    1.00001   0.97025   -1.000
 5574.00    1.00789   0.97284   -1.000
 5575.00    1.03015   0.97670   -1.000
 5576.00    1.11616   0.98001   -1.000
 5577.00    1.18627   0.98269   -1.000
 5578.00    1.09525   0.98510   -1.000
 5579.00    0.89826   0.98665   -1.000
 5580.00    0.82057   0.98656   -1.000
 5581.00    0.89932   0.98534   -1.000
 5582.00    0.97559   0.98434  278.560
 5583.00    0.99798   0.98324   -1.000
 5584.00    1.00397   0.97921   -1.000
 5585.00    0.99823   0.97001   -1.000
 5586.00    0.98204   0.95730   -1.000
 5587.00    0.96788   0.94612   -1.000
 5588.00    0.96576   0.94109   -1.000
 5589.00    0.97668   0.94351   -1.000
 5590.00    0.98743   0.95114   -1.000
 5591.00    0.99049   0.95947   -1.000
 5592.00    0.99624   0.96452   -1.000
 5593.00    0.99728   0.96594   -1.000
 5594.00    0.99399   0.96691   -1.000
 5595.00    0.99941   0.96966   -1.000
 5596.00    1.00306   0.97213   -1.000
 5597.00    1.00379   0.97103   -1.000
 5598.00    0.99271   0.96687   -1.000
 5599.00    0.98849   0.96235   -1.000
 5600.00    0.99230   0.95812   -1.000
 5601.00    0.98524   0.95454   -1.000
 5602.00    0.97950   0.95465   -1.000
 5603.00    0.98492   0.96123   -1.000
 5604.00    1.00252   0.97283   -1.000
 5605.00    1.01395   0.98478   -1.000
 5606.00    1.01790   0.99317   -1.000
 5607.00    1.01491   0.99730   -1.000
 5608.00    1.01538   0.99887   -1.000
 5609.00    1.01643   0.99970   -1.000
 5610.00    1.01625   1.00047   -1.000
 5611.00    1.01757   1.00001   -1.000
 5612.00    1.01881   0.99559   -1.000
 5613.00    1.01094   0.98512   -1.000
 5614.00    0.99342   0.97095   -1.000
 5615.00    0.97655   0.96047   -1.000
 5616.00    0.97710   0.96000   -1.000
 5617.00    0.98936   0.96814   -1.000
 5618.00    1.00442   0.97784   -1.000
 5619.00    1.00886   0.98417   -1.000
 5620.00    1.00982   0.98715   -1.000
 5621.00    1.01320   0.98784   -1.000
 5622.00    1.00937   0.98580   -1.000
 5623.00    1.00327   0.98103   -1.000
 5624.00    0.99309   0.97617   -1.000
 5625.00    0.98995   0.97491   -1.000
 5626.00    0.99873   0.97815   -1.000
 5627.00    1.00468   0.98344   -1.000
 5628.00    1.01012   0.98805   -1.000
 5629.00    1.01576   0.99106   -1.000
 5630.00    1.01627   0.99273   -1.000
 5631.00    1.01397   0.99334   -1.000
 5632.00    1.01373   0.99287   -1.000
 5633.00    1.01281   0.99136   -1.000
 5634.00    1.01068   0.98911   -1.000
 5635.00    1.00824   0.98639   -1.000
 5636.00    1.00554   0.98357   -1.000
 5637.00    1.00979   0.98129   -1.000
 5638.00    1.00917   0.97986   -1.000
 5639.00    1.00120   0.97875   -1.000
 5640.00    0.99941   0.97738   -1.000
 5641.00    0.99978   0.97638   -1.000
 5642.00    1.00342   0.97700   -1.000
 5643.00    1.00897   0.97917   -1.000
 5644.00    1.00735   0.98166   -1.000
 5645.00    1.00840   0.98363   -1.000
 5646.00    1.00781   0.98488   -1.000
 5647.00    1.01169   0.98534   -1.000
 5648.00    1.01408   0.98507   -1.000
 5649.00    1.01005   0.98444   -1.000
 5650.00    1.00827   0.98420   -1.000
 5651.00    1.01002   0.98465   -1.000
 5652.00    1.01459   0.98489   -1.000
 5653.00    1.01203   0.98380   -1.000
 5654.00    1.00646   0.98078   -1.000
 5655.00    1.00292   0.97498   -1.000
 5656.00    1.00249   0.96579   -1.000
 5657.00    0.98500   0.95532   -1.000
 5658.00    0.97521   0.94897   -1.000
 5659.00    0.97747   0.95038   -1.000
 5660.00    0.99182   0.95678   -1.000
 5661.00    0.99537   0.96265   -1.000
 5662.00    0.99405   0.96661   -1.000
 5663.00    0.99765   0.97099   -1.000
 5664.00    1.00515   0.97605   -1.000
 5665.00    1.00611   0.97870   -1.000
 5666.00    1.00186   0.97720   -1.000
 5667.00    0.99696   0.97370   -1.000
 5668.00    0.99412   0.97172   -1.000
 5669.00    0.99904   0.97287   -1.000
 5670.00    1.00081   0.97634   -1.000
 5671.00    1.00199   0.98052   -1.000
 5672.00    1.00849   0.98412   -1.000
 5673.00    1.01048   0.98635   -1.000
 5674.00    1.00474   0.98720   -1.000
 5675.00    1.00708   0.98745   -1.000
 5676.00    1.01002   0.98786   -1.000
 5677.00    1.00717   0.98811   -1.000
 5678.00    1.00420   0.98719   -1.000
 5679.00    1.00462   0.98464   -1.000
 5680.00    1.00439   0.98048   -1.000
 5681.00    0.99810   0.97488   -1.000
 5682.00    0.99814   0.96902   -1.000
 5683.00    0.99798   0.96515   -1.000
 5684.00    0.99510   0.96459   -1.000
 5685.00    0.99354   0.96626   -1.000
 5686.00    0.99141   0.96771   -1.000
 5687.00    0.99563   0.96776   -1.000
 5688.00    0.99163   0.96751   -1.000
 5689.00    0.99407   0.96878   -1.000
 5690.00    1.00213   0.97218   -1.000
 5691.00    1.00830   0.97668   -1.000
 5692.00    1.00691   0.98060   -1.000
 5693.00    1.00129   0.98298   -1.000
 5694.00    1.00255   0.98400   -1.000
 5695.00    1.00608   0.98420   -1.000
 5696.00    1.00447   0.98368   -1.000
 5697.00    1.00629   0.98195   -1.000
 5698.00    1.00559   0.97863   -1.000
 5699.00    0.99735   0.97420   -1.000
 5700.00    0.98948   0.97005   -1.000
 5701.00    0.98803   0.96772   -1.000
 5702.00    0.99082   0.96808   -1.000
 5703.00    0.99379   0.97027   -1.000
 5704.00    0.99897   0.97170   -1.000
 5705.00    0.99533   0.97017   -1.000
 5706.00    0.99136   0.96547   -1.000
 5707.00    0.98352   0.95875   -1.000
 5708.00    0.97262   0.95155   -1.000
 5709.00    0.96496   0.94616   -1.000
 5710.00    0.96993   0.94496   -1.000
 5711.00    0.97405   0.94886   -1.000
 5712.00    0.98405   0.95644   -1.000
 5713.00    0.99574   0.96481   -1.000
 5714.00    1.00128   0.97140   -1.000
 5715.00    1.00206   0.97547   -1.000
 5716.00    1.00031   0.97789   -1.000
 5717.00    1.00187   0.97969   -1.000
 5718.00    1.00013   0.98150   -1.000
 5719.00    1.00226   0.98357   -1.000
 5720.00    1.00589   0.98566   -1.000
 5721.00    1.00334   0.98726   -1.000
 5722.00    1.00478   0.98823   -1.000
 5723.00    1.00627   0.98854   -1.000
 5724.00    1.00453   0.98770   -1.000
 5725.00    1.00273   0.98529   -1.000
 5726.00    0.99580   0.98198   -1.000
 5727.00    0.99191   0.97934   -1.000
 5728.00    0.99596   0.97834   -1.000
 5729.00    1.00034   0.97860   -1.000
 5730.00    1.00562   0.97914   -1.000
 5731.00    1.00423   0.97954   -1.000
 5732.00    1.00097   0.98050   -1.000
 5733.00    1.00940   0.98261   -1.000
 5734.00    1.01222   0.98497   -1.000
 5735.00    1.00656   0.98612   -1.000
 5736.00    1.00812   0.98595   -1.000
 5737.00    1.00542   0.98541   -1.000
 5738.00    0.99696   0.98512   -1.000
 5739.00    0.99679   0.98508   -1.000
 5740.00    1.00190   0.98495   -1.000
 5741.00    1.00512   0.98441   -1.000
 5742.00    1.00170   0.98381   -1.000
 5743.00    1.00365   0.98389   -1.000
 5744.00    1.00448   0.98455   -1.000
 5745.00    1.00356   0.98464   -1.000
 5746.00    1.00093   0.98343   -1.000
 5747.00    0.99373   0.98176   -1.000
 5748.00    0.99451   0.98122   -1.000
 5749.00    0.99906   0.98191   -1.000
 5750.00    0.99978   0.98183   -1.000
 5751.00    0.98827   0.97899  275.101
 5752.00    0.98851   0.97401   -1.000
 5753.00    0.98394   0.97004   -1.000
 5754.00    0.98861   0.97012   -1.000
 5755.00    0.99329   0.97445   -1.000
 5756.00    1.00008   0.98049   -1.000
 5757.00    0.99891   0.98542   -1.000
 5758.00    1.00198   0.98745   -1.000
 5759.00    1.00500   0.98592   -1.000
 5760.00    1.00034   0.98157   -1.000
 5761.00    0.99555   0.97652   -1.000
 5762.00    0.98975   0.97368   -1.000
 5763.00    0.98598   0.97522   -1.000
 5764.00    0.99156   0.98046   -1.000
 5765.00    0.99736   0.98603   -1.000
 5766.00    1.00197   0.98918   -1.000
 5767.00    1.00248   0.98972   -1.000
 5768.00    1.00514   0.98880   -1.000
 5769.00    1.00222   0.98735   -1.000
 5770.00    1.00110   0.98576   -1.000
 5771.00    1.00203   0.98414   -1.000
 5772.00    1.00028   0.98245   -1.000
 5773.00    0.99787   0.98062   -1.000
 5774.00    0.99669   0.97893   -1.000
 5775.00    0.99461   0.97805   -1.000
 5776.00    0.99257   0.97803   -1.000
 5777.00    0.99226   0.97749   -1.000
 5778.00    0.99078   0.97490   -1.000
 5779.00    0.98313   0.97031   -1.000
 5780.00    0.98272   0.96510   -1.000
 5781.00    0.98610   0.96106   -1.000
 5782.00    0.98431   0.95930   -1.000
 5783.00    0.98651   0.95953   -1.000
 5784.00    0.98994   0.96071   -1.000
 5785.00    0.99335   0.96244   -1.000
 5786.00    0.99513   0.96491   -1.000
 5787.00    0.99944   0.96789   -1.000
 5788.00    1.00211   0.97048   -1.000
 5789.00    0.99937   0.97171   -1.000
 5790.00    0.99733   0.97167   -1.000
 5791.00    0.99765   0.97178   -1.000
 5792.00    1.00072   0.97356   -1.000
 5793.00    0.99809   0.97697   -1.000
 5794.00    0.99628   0.98039   -1.000
 5795.00    0.99668   0.98205   -1.000
 5796.00    0.99628   0.98134   -1.000
 5797.00    0.99226   0.97968   -1.000
 5798.00    0.99652   0.97937   -1.000
 5799.00    1.00203   0.98122   -1.000
 5800.00    1.00750   0.98390   -1.000
 5801.00    1.00814   0.98567   -1.000
 5802.00    1.00594   0.98565   -1.000
 5803.00    1.00422   0.98399   -1.000
 5804.00    1.00012   0.98183   -1.000
 5805.00    0.99827   0.98064   -1.000
 5806.00    0.99723   0.98107   -1.000
 5807.00    1.00117   0.98256   -1.000
 5808.00    1.00288   0.98415   -1.000
 5809.00    1.00125   0.98536   -1.000
 5810.00    1.00243   0.98634   -1.000
 5811.00    1.00620   0.98703   -1.000
 5812.00    1.00649   0.98691   -1.000
 5813.00    1.01015   0.98546   -1.000
 5814.00    1.00747   0.98294   -1.000
 5815.00    1.00544   0.98072   -1.000
 5816.00    1.00456   0.98044   -1.000
 5817.00    1.00657   0.98256   -1.000
 5818.00    1.00810   0.98573   -1.000
 5819.00    1.01079   0.98816   -1.000
 5820.00    1.01229   0.98924   -1.000
 5821.00    1.00857   0.98949   -1.000
 5822.00    1.00577   0.98950   -1.000
 5823.00    1.00927   0.98946   -1.000
 5824.00    1.01176   0.98937   -1.000
 5825.00    1.00917   0.98938   -1.000
 5826.00    1.01076   0.98968   -1.000
 5827.00    1.01409   0.99028   -1.000
 5828.00    1.00955   0.99100   -1.000
 5829.00    1.00434   0.99147   -1.000
 5830.00    1.00923   0.99136   -1.000
 5831.00    1.00929   0.99066   -1.000
 5832.00    1.00539   0.98945   -1.000
 5833.00    1.00823   0.98789   -1.000
 5834.00    1.00605   0.98657   -1.000
 5835.00    1.00498   0.98616   -1.000
 5836.00    1.01441   0.98682   -1.000
 5837.00    1.01712   0.98812   -1.000
 5838.00    1.01445   0.98961   -1.000
 5839.00    1.01390   0.99095   -1.000
 5840.00    1.00907   0.99176   -1.000
 5841.00    1.01288   0.99170   -1.000
 5842.00    1.01286   0.99059   -1.000
 5843.00    1.00790   0.98866   -1.000
 5844.00    1.00487   0.98632   -1.000
 5845.00    1.00699   0.98399   -1.000
 5846.00    1.00964   0.98209   -1.000
 5847.00    1.01162   0.98102   -1.000
 5848.00    1.00829   0.98064   -1.000
 5849.00    1.00069   0.98002   -1.000
 5850.00    1.00837   0.97796   -1.000
 5851.00    0.99545   0.97393   -1.000
 5852.00    0.99314   0.96893   -1.000
 5853.00    0.99328   0.96495   -1.000
 5854.00    0.99105   0.96261   -1.000
 5855.00    0.99288   0.96005   -1.000
 5856.00    0.99313   0.95581   -1.000
 5857.00    0.98149   0.95180   -1.000
 5858.00    0.98206   0.95142   -1.000
 5859.00    0.99473   0.95532   -1.000
 5860.00    0.99490   0.96095   -1.000
 5861.00    0.99946   0.96568   -1.000
 5862.00    1.00136   0.96887   -1.000
 5863.00    0.99806   0.97087   -1.000
 5864.00    0.99909   0.97149   -1.000
 5865.00    0.99815   0.97045   -1.000
 5866.00    0.99928   0.96890   -1.000
 5867.00    1.00244   0.96881   -1.000
 5868.00    0.99888   0.97082   -1.000
 5869.00    1.00123   0.97382   -1.000
 5870.00    1.00116   0.97626   -1.000
 5871.00    1.00376   0.97719   -1.000
 5872.00    1.00148   0.97657   -1.000
 5873.00    1.00377   0.97503   -1.000
 5874.00    1.00227   0.97319   -1.000
 5875.00    0.99901   0.97145   -1.000
 5876.00    0.99895   0.96992   -1.000
 5877.00    0.99934   0.96822   -1.000
 5878.00    0.99756   0.96592   -1.000
 5879.00    1.00133   0.96329   -1.000
 5880.00    0.99972   0.96099   -1.000
 5881.00    0.99181   0.95893   -1.000
 5882.00    0.98998   0.95639   -1.000
 5883.00    0.98736   0.95325   -1.000
 5884.00    0.98567   0.94993   -1.000
 5885.00    0.98313   0.94540   -1.000
 5886.00    0.97730   0.93536   -1.000
 5887.00    0.96317   0.91483   -1.000
 5888.00    0.93458   0.88574   -1.000
 5889.00    0.90650   0.86052   -1.000
 5890.00    0.90025   0.85282   -1.000
 5891.00    0.89731   0.86357   -1.000
 5892.00    0.88395   0.87961  312.039
 5893.00    0.89445   0.88623  306.655
 5894.00    0.91084   0.87982   -1.000
 5895.00    0.91058   0.86994   -1.000
 5896.00    0.91025   0.86954   -1.000
 5897.00    0.91285   0.88225   -1.000
 5898.00    0.92288   0.90106   -1.000
 5899.00    0.93906   0.91818   -1.000
 5900.00    0.96684   0.93104   -1.000
 5901.00    0.97996   0.94022   -1.000
 5902.00    0.97965   0.94652   -1.000
 5903.00    0.98385   0.95046   -1.000
 5904.00    0.99080   0.95267   -1.000
 5905.00    0.99280   0.95402   -1.000
 5906.00    0.99317   0.95516   -1.000
 5907.00    0.99107   0.95633   -1.000
 5908.00    0.99082   0.95755   -1.000
 5909.00    0.98623   0.95855   -1.000
 5910.00    0.98250   0.95872   -1.000
 5911.00    0.98817   0.95735   -1.000
 5912.00    0.99423   0.95400   -1.000
 5913.00    0.98415   0.94923   -1.000
 5914.00    0.97858   0.94483   -1.000
 5915.00    0.97410   0.94267   -1.000
 5916.00    0.97624   0.94315   -1.000
 5917.00    0.97595   0.94550   -1.000
 5918.00    0.97289   0.94863   -1.000
 5919.00    0.97270   0.95136   -1.000
 5920.00    0.97593   0.95298   -1.000
 5921.00    0.98343   0.95354   -1.000
 5922.00    0.97920   0.95366   -1.000
 5923.00    0.97775   0.95421   -1.000
 5924.00    0.98181   0.95569   -1.000
 5925.00    0.98805   0.95757   -1.000
 5926.00    0.99204   0.95867   -1.000
 5927.00    0.98569   0.95794   -1.000
 5928.00    0.98874   0.95538   -1.000
 5929.00    0.98300   0.95263   -1.000
 5930.00    0.97519   0.95173   -1.000
 5931.00    0.97943   0.95289   -1.000
 5932.00    0.98611   0.95442   -1.000
 5933.00    0.98321   0.95480   -1.000
 5934.00    0.97697   0.95437   -1.000
 5935.00    0.97644   0.95452   -1.000
 5936.00    0.98372   0.95579   -1.000
 5937.00    0.98288   0.95699   -1.000
 5938.00    0.98297   0.95664   -1.000
 5939.00    0.98322   0.95450   -1.000
 5940.00    0.97549   0.95166   -1.000
 5941.00    0.97087   0.94947   -1.000
 5942.00    0.97051   0.94872   -1.000
 5943.00    0.97434   0.94957   -1.000
 5944.00    0.97908   0.95132   -1.000
 5945.00    0.97611   0.95246   -1.000
 5946.00    0.97207   0.95183   -1.000
 5947.00    0.97535   0.94993   -1.000
 5948.00    0.97381   0.94866   -1.000
 5949.00    0.96522   0.94924   -1.000
 5950.00    0.96574   0.95083   -1.000
 5951.00    0.97120   0.95188   -1.000
 5952.00    0.97583   0.95204   -1.000
 5953.00    0.98012   0.95187   -1.000
 5954.00    0.98005   0.95142   -1.000
 5955.00    0.97629   0.95031   -1.000
 5956.00    0.96428   0.94903   -1.000
 5957.00    0.96331   0.94892   -1.000
 5958.00    0.97229   0.95069   -1.000
 5959.00    0.97919   0.95373   -1.000
 5960.00    0.97901   0.95683   -1.000
 5961.00    0.97926   0.95906   -1.000
 5962.00    0.98182   0.95985   -1.000
 5963.00    0.98067   0.95901   -1.000
 5964.00    0.97882   0.95698   -1.000
 5965.00    0.97665   0.95483   -1.000
 5966.00    0.97078   0.95369   -1.000
 5967.00    0.97148   0.95394   -1.000
 5968.00    0.97347   0.95513   -1.000
 5969.00    0.97786   0.95671   -1.000
 5970.00    0.98340   0.95828   -1.000
 5971.00    0.98219   0.95938   -1.000
 5972.00    0.97764   0.95956   -1.000
 5973.00    0.97554   0.95852   -1.000
 5974.00    0.97645   0.95609   -1.000
 5975.00    0.97021   0.95272   -1.000
 5976.00    0.96949   0.94975   -1.000
 5977.00    0.96994   0.94857   -1.000
 5978.00    0.97353   0.94963   -1.000
 5979.00    0.97747   0.95207   -1.000
 5980.00    0.97058   0.95407   -1.000
 5981.00    0.96903   0.95395   -1.000
 5982.00    0.97059   0.95141   -1.000
 5983.00    0.96503   0.94786   -1.000
 5984.00    0.96636   0.94552   -1.000
 5985.00    0.96660   0.94559   -1.000
 5986.00    0.96579   0.94752   -1.000
 5987.00    0.96980   0.94994   -1.000
 5988.00    0.96825   0.95167   -1.000
 5989.00    0.97082   0.95219   -1.000
 5990.00    0.97360   0.95193   -1.000
 5991.00    0.97244   0.95220   -1.000
 5992.00    0.97049   0.95399   -1.000
 5993.00    0.96950   0.95669   -1.000
 5994.00    0.97279   0.95842   -1.000
 5995.00    0.97580   0.95795   -1.000
 5996.00    0.97429   0.95586   -1.000
 5997.00    0.97803   0.95384   -1.000
 5998.00    0.97065   0.95310   -1.000
 5999.00    0.96573   0.95334   -1.000
 6000.00    0.96777   0.95333   -1.000
 6001.00    0.96916   0.95238   -1.000
 6002.00    0.96538   0.95100   -1.000
 6003.00    0.96346   0.95002   -1.000
 6004.00    0.96505   0.94935   -1.000
 6005.00    0.96420   0.94785   -1.000
 6006.00    0.95612   0.94507   -1.000
 6007.00    0.95559   0.94245   -1.000
 6008.00    0.95528   0.94226   -1.000
 6009.00    0.95395   0.94492  281.929
 6010.00    0.96396   0.94819   -1.000
 6011.00    0.96399   0.94965   -1.000
 6012.00    0.96125   0.94917   -1.000
 6013.00    0.96302   0.94842   -1.000
 6014.00    0.96347   0.94839   -1.000
 6015.00    0.96461   0.94852   -1.000
 6016.00    0.95903   0.94802   -1.000
 6017.00    0.96293   0.94683   -1.000
 6018.00    0.96460   0.94511   -1.000
 6019.00    0.95457   0.94322   -1.000
 6020.00    0.95192   0.94187   -1.000
 6021.00    0.94871   0.94150  284.169
 6022.00    0.94736   0.94202  282.199
 6023.00    0.95147   0.94328  281.739
 6024.00    0.95268   0.94538  281.378
 6025.00    0.95345   0.94806  279.539
 6026.00    0.95485   0.95063  278.831
 6027.00    0.96014   0.95269  276.933
 6028.00    0.95958   0.95427  275.814
 6029.00    0.96205   0.95544  275.505
 6030.00    0.96576   0.95631  275.616
 6031.00    0.96200   0.95700  276.320
 6032.00    0.96099   0.95763  275.683
 6033.00    0.96418   0.95836  274.394
 6034.00    0.96127   0.95929  273.767
 6035.00    0.96337   0.95997  273.697
 6036.00    0.96809   0.95966  273.130
 6037.00    0.96572   0.95820  273.530
 6038.00    0.96078   0.95602  275.222
 6039.00    0.95700   0.95359  275.645
 6040.00    0.95869   0.95103  276.584
 6041.00    0.95697   0.94792  275.818
 6042.00    0.95908   0.94493   -1.000
 6043.00    0.95834   0.94483   -1.000
 6044.00    0.95861   0.94882   -1.000
 6045.00    0.95872   0.95404  272.128
 6046.00    0.96187   0.95746  272.136
 6047.00    0.96019   0.95873  271.643
 6048.00    0.96034   0.95867  271.996
 6049.00    0.95685   0.95794  273.015
 6050.00    0.95897   0.95706  273.577
 6051.00    0.95514   0.95619  273.794
 6052.00    0.95579   0.95507  274.354
 6053.00    0.95748   0.95347  275.539
 6054.00    0.95452   0.95152  276.339
 6055.00    0.95407   0.94978  277.964
 6056.00    0.95211   0.94893  278.714
 6057.00    0.95616   0.94920  278.120
 6058.00    0.96096   0.95024   -1.000
 6059.00    0.95982   0.95141  275.156
 6060.00    0.95875   0.95181  275.659
 6061.00    0.95845   0.95043  276.286
 6062.00    0.95702   0.94683   -1.000
 6063.00    0.96172   0.94180   -1.000
 6064.00    0.95367   0.93744   -1.000
 6065.00    0.90746   0.93633   -1.000
 6066.00    0.59366   0.93953   -1.000
 6067.00    0.76476   0.94518   -1.000
 6068.00    0.96333   0.95028   -1.000
 6069.00    0.96154   0.95344  276.186
 6070.00    0.99673   0.95509   -1.000
 6071.00    0.30546   0.95612   -1.000
 6072.00    0.55758   0.95692   -1.000
 6073.00    0.98650   0.95721   -1.000
 6074.00    0.95319   0.95652  273.213
 6075.00    0.95691   0.95473  274.212
 6076.00    0.95035   0.95221  275.678
 6077.00    0.94528   0.94967  277.265
 6078.00    0.94606   0.94779  279.482
 6079.00    0.95024   0.94677  281.135
 6080.00    0.94952   0.94605  281.150
 6081.00    0.94447   0.94497  281.438
 6082.00    0.94222   0.94365  282.299
 6083.00    0.94140   0.94283  282.191
 6084.00    0.93825   0.94290  281.981
 6085.00    0.93968   0.94369  281.673
 6086.00    0.94233   0.94492  280.806
 6087.00    0.94415   0.94614  279.648
 6088.00    0.94542   0.94660  280.359
 6089.00    0.94054   0.94581  282.152
 6090.00    0.93715   0.94423  283.286
 6091.00    0.93769   0.94304  283.029
 6092.00    0.93981   0.94322  281.069
 6093.00    0.94127   0.94473  279.727
 6094.00    0.94238   0.94684  278.113
 6095.00    0.94502   0.94888  276.947
 6096.00    0.94244   0.95058  277.160
 6097.00    0.94268   0.95173  277.894
 6098.00    0.94127   0.95146  278.018
 6099.00    0.93483   0.94832   -1.000
 6100.00    0.93377   0.94146  281.665
 6101.00    0.92630   0.93240  288.886
 6102.00    0.92140   0.92543  293.268
 6103.00    0.92106   0.92455  290.603
 6104.00    0.92830   0.92958  284.815
 6105.00    0.93560   0.93672  280.653
 6106.00    0.93417   0.94257  279.946
 6107.00    0.92979   0.94647   -1.000
 6108.00    0.93144   0.94912   -1.000
 6109.00    0.92911   0.95068   -1.000
 6110.00    0.92851   0.95086   -1.000
 6111.00    0.93172   0.95000   -1.000
 6112.00    0.93537   0.94918   -1.000
 6113.00    0.93216   0.94901   -1.000
 6114.00    0.93601   0.94920   -1.000
 6115.00    0.93947   0.94927  278.739
 6116.00    0.93901   0.94894  280.641
 6117.00    0.93272   0.94746   -1.000
 6118.00    0.92749   0.94339   -1.000
 6119.00    0.92351   0.93608   -1.000
 6120.00    0.91748   0.92691  290.352
 6121.00    0.90763   0.91932   -1.000
 6122.00    0.90777   0.91755  293.075
 6123.00    0.91130   0.92256  287.925
 6124.00    0.91760   0.93049   -1.000
 6125.00    0.92168   0.93678   -1.000
 6126.00    0.92283   0.93959   -1.000
 6127.00    0.92606   0.93956   -1.000
 6128.00    0.92777   0.93907  285.153
 6129.00    0.92330   0.94061   -1.000
 6130.00    0.92924   0.94422   -1.000
 6131.00    0.92744   0.94767   -1.000
 6132.00    0.92808   0.94855   -1.000
 6133.00    0.92009   0.94478   -1.000
 6134.00    0.91399   0.93500   -1.000
 6135.00    0.89982   0.92110   -1.000
 6136.00    0.88813   0.90922   -1.000
 6137.00    0.88235   0.90534   -1.000
 6138.00    0.88900   0.90915   -1.000
 6139.00    0.90426   0.91463  289.480
 6140.00    0.90940   0.91756  286.692
 6141.00    0.91057   0.91966  287.449
 6142.00    0.90951   0.92424   -1.000
 6143.00    0.90995   0.93090   -1.000
 6144.00    0.91910   0.93641   -1.000
 6145.00    0.92583   0.93850   -1.000
 6146.00    0.92683   0.93740  282.502
 6147.00    0.92440   0.93474  284.331
 6148.00    0.91944   0.93229   -1.000
 6149.00    0.91424   0.93137   -1.000
 6150.00    0.91667   0.93226   -1.000
 6151.00    0.92047   0.93413   -1.000
 6152.00    0.91818   0.93555   -1.000
 6153.00    0.91948   0.93537   -1.000
 6154.00    0.91870   0.93364   -1.000
 6155.00    0.91460   0.93145   -1.000
 6156.00    0.91405   0.92960   -1.000
 6157.00    0.91508   0.92774   -1.000
 6158.00    0.91427   0.92417  293.186
 6159.00    0.90617   0.91655  298.996
 6160.00    0.89423   0.90461   -1.000
 6161.00    0.88196   0.89258   -1.000
 6162.00    0.87594   0.88671   -1.000
 6163.00    0.88132   0.88932  314.451
 6164.00    0.89287   0.89701  305.469
 6165.00    0.90362   0.90457  301.167
 6166.00    0.90044   0.90882  300.109
 6167.00    0.89472   0.90900   -1.000
 6168.00    0.89618   0.90635  305.255
 6169.00    0.89445   0.90417  308.219
 6170.00    0.89194   0.90561   -1.000
 6171.00    0.90031   0.91059  299.282
 6172.00    0.90164   0.91647   -1.000
 6173.00    0.89937   0.92126   -1.000
 6174.00    0.90650   0.92460   -1.000
 6175.00    0.90597   0.92662   -1.000
 6176.00    0.90691   0.92762   -1.000
 6177.00    0.90799   0.92815   -1.000
 6178.00    0.90642   0.92848   -1.000
 6179.00    0.90917   0.92878   -1.000
 6180.00    0.91159   0.92945   -1.000
 6181.00    0.91351   0.93054   -1.000
 6182.00    0.91182   0.93150   -1.000
 6183.00    0.91283   0.93176   -1.000
 6184.00    0.91229   0.93112   -1.000
 6185.00    0.90672   0.92950   -1.000
 6186.00    0.90894   0.92696   -1.000
 6187.00    0.90795   0.92353   -1.000
 6188.00    0.89955   0.91871   -1.000
 6189.00    0.89461   0.91229   -1.000
 6190.00    0.88766   0.90612   -1.000
 6191.00    0.88367   0.90389   -1.000
 6192.00    0.88348   0.90753   -1.000
 6193.00    0.89547   0.91494   -1.000
 6194.00    0.90479   0.92226   -1.000
 6195.00    0.90774   0.92722   -1.000
 6196.00    0.90830   0.92934   -1.000
 6197.00    0.90748   0.92871   -1.000
 6198.00    0.89710   0.92617   -1.000
 6199.00    0.89326   0.92393   -1.000
 6200.00    0.89507   0.92414   -1.000
 6201.00    0.89353   0.92690   -1.000
 6202.00    0.90281   0.93054   -1.000
 6203.00    0.90203   0.93345   -1.000
 6204.00    0.90008   0.93513   -1.000
 6205.00    0.90044   0.93585   -1.000
 6206.00    0.90420   0.93605   -1.000
 6207.00    0.90364   0.93592   -1.000
 6208.00    0.90057   0.93525   -1.000
 6209.00    0.90044   0.93366   -1.000
 6210.00    0.90205   0.93076   -1.000
 6211.00    0.89379   0.92635   -1.000
 6212.00    0.89631   0.92087   -1.000
 6213.00    0.91108   0.91578  306.276
 6214.00    0.90726   0.91262  309.158
 6215.00    0.91012   0.91169  309.770
 6216.00    0.91342   0.91179  305.231
 6217.00    0.91109   0.91146  304.114
 6218.00    0.90697   0.91038  306.775
 6219.00    0.90871   0.90969  305.213
 6220.00    0.90561   0.91066  302.907
 6221.00    0.91134   0.91319  305.232
 6222.00    0.88781   0.91591   -1.000
 6223.00    0.85236   0.91771   -1.000
 6224.00    0.88494   0.91867   -1.000
 6225.00    0.89247   0.91904   -1.000
 6226.00    0.89406   0.91821   -1.000
 6227.00    0.89441   0.91496   -1.000
 6228.00    0.88247   0.90875   -1.000
 6229.00    0.87310   0.90116   -1.000
 6230.00    0.86147   0.89564   -1.000
 6231.00    0.86914   0.89515   -1.000
 6232.00    0.87715   0.89982   -1.000
 6233.00    0.88037   0.90696   -1.000
 6234.00    0.88438   0.91302   -1.000
 6235.00    0.89282   0.91563   -1.000
 6236.00    0.88813   0.91453   -1.000
 6237.00    0.88714   0.91125   -1.000
 6238.00    0.87941   0.90783   -1.000
 6239.00    0.87678   0.90567   -1.000
 6240.00    0.87332   0.90477   -1.000
 6241.00    0.87457   0.90385   -1.000
 6242.00    0.87646   0.90159   -1.000
 6243.00    0.87169   0.89789   -1.000
 6244.00    0.86943   0.89404   -1.000
 6245.00    0.86404   0.89211   -1.000
 6246.00    0.87133   0.89379   -1.000
 6247.00    0.87175   0.89878   -1.000
 6248.00    0.87535   0.90454   -1.000
 6249.00    0.87730   0.90779   -1.000
 6250.00    0.87066   0.90652   -1.000
 6251.00    0.86475   0.90150   -1.000
 6252.00    0.86244   0.89570   -1.000
 6253.00    0.85865   0.89191   -1.000
 6254.00    0.84979   0.89079   -1.000
 6255.00    0.85219   0.89117   -1.000
 6256.00    0.85654   0.89176   -1.000
 6257.00    0.86009   0.89250   -1.000
 6258.00    0.86151   0.89425   -1.000
 6259.00    0.85928   0.89759   -1.000
 6260.00    0.86262   0.90208   -1.000
 6261.00    0.86551   0.90668   -1.000
 6262.00    0.86545   0.91021   -1.000
 6263.00    0.86780   0.91191   -1.000
 6264.00    0.86959   0.91211   -1.000
 6265.00    0.86037   0.91214   -1.000
 6266.00    0.86548   0.91280   -1.000
 6267.00    0.86799   0.91331   -1.000
 6268.00    0.87017   0.91256   -1.000
 6269.00    0.86961   0.91080   -1.000
 6270.00    0.86568   0.90915   -1.000
 6271.00    0.86729   0.90805   -1.000
 6272.00    0.86748   0.90655   -1.000
 6273.00    0.86619   0.90314   -1.000
 6274.00    0.86806   0.89719   -1.000
 6275.00    0.86021   0.88964   -1.000
 6276.00    0.84347   0.88236   -1.000
 6277.00    0.82636   0.87703   -1.000
 6278.00    0.81575   0.87445   -1.000
 6279.00    0.80728   0.87479   -1.000
 6280.00    0.81289   0.87807   -1.000
 6281.00    0.82009   0.88391   -1.000
 6282.00    0.82780   0.89120   -1.000
 6283.00    0.83650   0.89828   -1.000
 6284.00    0.84330   0.90382   -1.000
 6285.00    0.85415   0.90743   -1.000
 6286.00    0.85424   0.90943   -1.000
 6287.00    0.85723   0.90994   -1.000
 6288.00    0.85767   0.90872   -1.000
 6289.00    0.84968   0.90610   -1.000
 6290.00    0.85223   0.90327   -1.000
 6291.00    0.85089   0.90135   -1.000
 6292.00    0.84812   0.90045   -1.000
 6293.00    0.84860   0.89973   -1.000
 6294.00    0.84798   0.89820   -1.000
 6295.00    0.85244   0.89555   -1.000
 6296.00    0.85152   0.89253   -1.000
 6297.00    0.84666   0.89026   -1.000
 6298.00    0.84987   0.88908   -1.000
 6299.00    0.86392   0.88829   -1.000
 6300.00    0.87074   0.88752   -1.000
 6301.00    0.85307   0.88783   -1.000
 6302.00    0.81820   0.89047   -1.000
 6303.00    0.80324   0.89505   -1.000
 6304.00    0.82416   0.89971   -1.000
 6305.00    0.84938   0.90310   -1.000
 6306.00    0.85441   0.90526   -1.000
 6307.00    0.85368   0.90670   -1.000
 6308.00    0.85648   0.90757   -1.000
 6309.00    0.85430   0.90778   -1.000
 6310.00    0.85164   0.90725   -1.000
 6311.00    0.84908   0.90596   -1.000
 6312.00    0.85223   0.90397   -1.000
 6313.00    0.84979   0.90145   -1.000
 6314.00    0.84335   0.89879   -1.000
 6315.00    0.84658   0.89630   -1.000
 6316.00    0.84746   0.89415   -1.000
 6317.00    0.84295   0.89301   -1.000
 6318.00    0.84284   0.89404   -1.000
 6319.00    0.84737   0.89742   -1.000
 6320.00    0.85314   0.90165   -1.000
 6321.00    0.85611   0.90534   -1.000
 6322.00    0.85001   0.90847   -1.000
 6323.00    0.84728   0.91139   -1.000
 6324.00    0.85547   0.91364   -1.000
 6325.00    0.86104   0.91455   -1.000
 6326.00    0.85853   0.91434   -1.000
 6327.00    0.85942   0.91369   -1.000
 6328.00    0.86093   0.91308   -1.000
 6329.00    0.85854   0.91281   -1.000
 6330.00    0.86221   0.91295   -1.000
 6331.00    0.85994   0.91292   -1.000
 6332.00    0.85982   0.91143   -1.000
 6333.00    0.85541   0.90745   -1.000
 6334.00    0.84293   0.90180   -1.000
 6335.00    0.83128   0.89726   -1.000
 6336.00    0.84532   0.89635   -1.000
 6337.00    0.85125   0.89899   -1.000
 6338.00    0.85934   0.90312   -1.000
 6339.00    0.86362   0.90679   -1.000
 6340.00    0.86410   0.90909   -1.000
 6341.00    0.86491   0.90976   -1.000
 6342.00    0.86538   0.90886   -1.000
 6343.00    0.85488   0.90694   -1.000
 6344.00    0.86013   0.90498   -1.000
 6345.00    0.86264   0.90395   -1.000
 6346.00    0.86179   0.90459   -1.000
 6347.00    0.86680   0.90712   -1.000
 6348.00    0.86494   0.91087   -1.000
 6349.00    0.86701   0.91447   -1.000
 6350.00    0.86702   0.91663   -1.000
 6351.00    0.86103   0.91672   -1.000
 6352.00    0.86482   0.91500   -1.000
 6353.00    0.86395   0.91243   -1.000
 6354.00    0.85914   0.91011   -1.000
 6355.00    0.86135   0.90843   -1.000
 6356.00    0.85588   0.90695   -1.000
 6357.00    0.85075   0.90509   -1.000
 6358.00    0.84955   0.90295   -1.000
 6359.00    0.85285   0.90098   -1.000
 6360.00    0.85456   0.89932   -1.000
 6361.00    0.86221   0.89804   -1.000
 6362.00    0.86534   0.89774   -1.000
 6363.00    0.86881   0.89901   -1.000
 6364.00    0.87038   0.90155   -1.000
 6365.00    0.85989   0.90433   -1.000
 6366.00    0.84284   0.90654   -1.000
 6367.00    0.84006   0.90768   -1.000
 6368.00    0.85218   0.90747   -1.000
 6369.00    0.85537   0.90633   -1.000
 6370.00    0.85534   0.90542   -1.000
 6371.00    0.85612   0.90574   -1.000
 6372.00    0.85662   0.90736   -1.000
 6373.00    0.85762   0.90930   -1.000
 6374.00    0.85944   0.91039   -1.000
 6375.00    0.85748   0.91020   -1.000
 6376.00    0.85363   0.90908   -1.000
 6377.00    0.85194   0.90756   -1.000
 6378.00    0.84804   0.90599   -1.000
 6379.00    0.84540   0.90461   -1.000
 6380.00    0.84533   0.90362   -1.000
 6381.00    0.83864   0.90317   -1.000
 6382.00    0.83658   0.90326   -1.000
 6383.00    0.83491   0.90384   -1.000
 6384.00    0.83343   0.90491   -1.000
 6385.00    0.83362   0.90636   -1.000
 6386.00    0.83222   0.90785   -1.000
 6387.00    0.82958   0.90879   -1.000
 6388.00    0.82290   0.90865   -1.000
 6389.00    0.81899   0.90703   -1.000
 6390.00    0.81706   0.90348   -1.000
 6391.00    0.80805   0.89830   -1.000
 6392.00    0.79762   0.89351   -1.000
 6393.00    0.79328   0.89184   -1.000
 6394.00    0.79781   0.89414   -1.000
 6395.00    0.80111   0.89826   -1.000
 6396.00    0.79646   0.90067   -1.000
 6397.00    0.79276   0.89928   -1.000
 6398.00    0.78586   0.89511   -1.000
 6399.00    0.77524   0.89163   -1.000
 6400.00    0.76961   0.89195   -1.000
 6401.00    0.77087   0.89616   -1.000
 6402.00    0.77362   0.90164   -1.000
 6403.00    0.77417   0.90546   -1.000
 6404.00    0.77456   0.90607   -1.000
 6405.00    0.77038   0.90344   -1.000
 6406.00    0.75785   0.89871   -1.000
 6407.00    0.75319   0.89401   -1.000
 6408.00    0.75318   0.89173   -1.000
 6409.00    0.74601   0.89241   -1.000
 6410.00    0.74294   0.89422   -1.000
 6411.00    0.73901   0.89557   -1.000
 6412.00    0.73093   0.89664   -1.000
 6413.00    0.73309   0.89781   -1.000
 6414.00    0.72789   0.89887   -1.000
 6415.00    0.72458   0.89982   -1.000
 6416.00    0.71665   0.90052   -1.000
 6417.00    0.70762   0.90006   -1.000
 6418.00    0.70706   0.89777   -1.000
 6419.00    0.70108   0.89454   -1.000
 6420.00    0.68528   0.89272   -1.000
 6421.00    0.67652   0.89413   -1.000
 6422.00    0.66995   0.89845   -1.000
 6423.00    0.67285   0.90361   -1.000
 6424.00    0.67384   0.90785   -1.000
 6425.00    0.66759   0.91055   -1.000
 6426.00    0.66225   0.91139   -1.000
 6427.00    0.65762   0.90959   -1.000
 6428.00    0.64461   0.90477   -1.000
