###################################################################
## OUTPUT of StarlightChains_v04.for    [Cid@UFSC - 01/Apr/2007] ##
###################################################################

## Some input info
NGC7078_a_2.cxt                          [arq_obs]
Base.BC03.S                              [arq_base]
NGC7078_a_2.msk                          [arq_masks]
StCv04.C99.config                        [arq_config]
  150                                    [N_base]
    0                                    [N_YAV_components = # of components with extra extinction!]
    0                                    [i_FitPowerLaw (1/0 = Yes/No)]
-9.99                                    [alpha_PowerLaw]
CCM                                      [red_law_option]
 1.458241                                [q_norm = A(l_norm)/A(V)]

## (Re)Sampling Parameters
 3359.00                                 [l_ini (A)]
 6428.00                                 [l_fin (A)]
    1.00                                 [dl    (A)]     (OBS: dl_cushion =    50.00 A)

## Normalization info
 4020.00                                 [l_norm (A) - for base]
 4010.00                                 [llow_norm (A) - window for f_obs]
 4060.00                                 [lupp_norm (A) - window for f_obs]
1.263103E-13                             [fobs_norm (in input units)]

## S/N
 4730.00                                 [llow_SN (A) - window for S/N]
 4780.00                                 [lupp_SN (A) - window for S/N]
 205.831                                 [S/N in S/N window]
 202.695                                 [S/N in norm. window]
 485.220                                 [S/N_err in S/N window]
 477.827                                 [S/N_err in norm. window]
  1.0000                                 [fscale_chi2]

## etc...
  2147483587                             [idum_orig]
  3064                                   [NOl_eff]
   745                                   [Nl_eff]
  2319    NSIGMA                         [Ntot_cliped & clip_method]
 10248210                                [Nglobal_steps]
   7                                     [N_chains]
  15                                     [NEX0s_base = N_base in EX0s-fits]
 0   1   1      254   2.0   1.005E+03    [Clip-Bug, RC-Crash & Burn-In warning-flags, n_censored_weights, wei_nsig_threshold & wei_limit]
   604    604.679    604.662      0.016  [idt_all, wdt_TotTime, wdt_UsrTime & wdt_SysTime (sec)]

## Synthesis Results - Best model ##

 2.64273E+00                             [chi2/Nl_eff]
     0.34073                             [adev (%)]

   103.95455                             [sum-of-x (%)]
 3.59782E-13                             [Flux_tot (units of input spectrum!)]
 1.32997E-09                             [Mini_tot (???)]
 7.13277E-10                             [Mcor_tot (???)]

 -57.97                                  [v0_min  (km/s)]
  95.79                                  [vd_min  (km/s)]
 0.7505                                  [AV_min  (mag)]
 0.0000                                  [YAV_min (mag)]

# j     x_j(%)      Mini_j(%)     Mcor_j(%)     age_j(yr)     Z_j      (L/M)_j    YAV?  Mstars   component_j        a/Fe...       SSP_chi2r SSP_adev(%)   SSP_AV   SSP_x(%)
  1      0.0000     0.0000E+00    0.0000E+00    1.000000E+06  0.00010  8.160E-03    0   1.0000   age020_m22            0.0000     4.4250E+03    10.9561   3.4966    76.4856
  2     44.3059     2.4227E-01    4.5174E-01    3.160000E+06  0.00010  4.759E-02    0   1.0000   age045_m22            0.0000     3.2372E+02     2.8668   1.4155    98.7207
  3      0.0000     0.0000E+00    0.0000E+00    5.010000E+06  0.00010  1.932E-02    0   0.9582   age055_m22            0.0000     4.0804E+03    11.1873   1.7759    82.5641
  4      0.0000     0.0000E+00    0.0000E+00    6.610000E+06  0.00010  9.973E-03    0   0.9297   age061_m22            0.0000     4.4406E+03    11.3485   3.4501    79.1968
  5      0.0000     0.0000E+00    0.0000E+00    8.710000E+06  0.00010  7.690E-03    0   0.9030   age067_m22            0.0000     4.1967E+03    11.0032   3.4413    79.7126
  6      0.0000     0.0000E+00    0.0000E+00    1.000000E+07  0.00010  6.375E-03    0   0.8902   age070_m22            0.0000     4.0029E+03    10.7215   3.4560    79.9433
  7      0.0000     0.0000E+00    0.0000E+00    1.445000E+07  0.00010  4.874E-03    0   0.8589   age078_m22            0.0000     2.8666E+03     8.9778   3.2682    83.2400
  8      0.0000     0.0000E+00    0.0000E+00    2.512000E+07  0.00010  4.103E-03    0   0.8174   age090_m22            0.0000     8.9668E+02     5.0009   2.8307    91.1449
  9      0.0000     0.0000E+00    0.0000E+00    4.000000E+07  0.00010  3.654E-03    0   0.7830   age104_m22            0.0000     1.7167E+02     1.9526   2.5018    97.4789
 10      0.0000     0.0000E+00    0.0000E+00    5.500000E+07  0.00010  3.093E-03    0   0.7597   age110_m22            0.0000     1.3385E+02     1.4713   2.3903    99.5728
 11      5.0099     5.3628E-01    7.1376E-01    1.015200E+08  0.00010  2.431E-03    0   0.7138   age116_m22            0.0000     3.5233E+02     2.1224   2.0244   103.3866
 12      0.0000     0.0000E+00    0.0000E+00    1.609000E+08  0.00010  1.319E-03    0   0.6775   age120_m22            0.0000     4.1335E+02     2.4708   1.5515   105.4877
 13      0.1311     3.1748E-02    3.7957E-02    2.861200E+08  0.00010  1.075E-03    0   0.6412   age125_m22            0.0000     2.5499E+03     7.4284   1.5772   111.3199
 14      0.0000     0.0000E+00    0.0000E+00    5.088000E+08  0.00010  7.183E-04    0   0.6083   age130_m22            0.0000     3.4926E+03     8.9064   1.3378   113.5907
 15      0.0000     0.0000E+00    0.0000E+00    9.047900E+08  0.00010  4.524E-04    0   0.5785   age135_m22            0.0000     3.5928E+03     9.2031   1.1405   114.8856
 16      0.0000     0.0000E+00    0.0000E+00    1.278050E+09  0.00010  3.018E-04    0   0.5588   age138_m22            0.0000     1.3327E+03     5.9247   0.6363   111.2494
 17      0.0000     0.0000E+00    0.0000E+00    1.434000E+09  0.00010  2.691E-04    0   0.5532   age139_m22            0.0000     1.0058E+03     5.2708   0.4883   110.2088
 18      0.0884     1.4545E-01    1.4363E-01    2.500000E+09  0.00010  1.582E-04    0   0.5296   age150_m22            0.0000     7.1265E+02     4.3261   0.3813   110.6050
 19      0.0000     0.0000E+00    0.0000E+00    4.250000E+09  0.00010  1.007E-04    0   0.5110   age158_m22            0.0000     2.5424E+02     2.7116   0.2489   107.8009
 20      0.0000     0.0000E+00    0.0000E+00    6.250000E+09  0.00010  6.869E-05    0   0.4985   age166_m22            0.0000     1.0346E+02     1.4845   0.2129   103.8667
 21      0.0000     0.0000E+00    0.0000E+00    7.500000E+09  0.00010  5.873E-05    0   0.4931   age171_m22            0.0000     9.7040E+01     1.2388   0.2037   103.1274
 22      0.2397     1.3918E+00    1.2597E+00    1.000000E+10  0.00010  4.481E-05    0   0.4854   age181_m22            0.0000     1.0503E+02     1.2804   0.1656   102.7460
 23      0.0000     0.0000E+00    0.0000E+00    1.300000E+10  0.00010  3.489E-05    0   0.4791   age193_m22            0.0000     1.2325E+02     1.3558   0.1102   102.0955
 24      0.0000     0.0000E+00    0.0000E+00    1.500000E+10  0.00010  3.035E-05    0   0.4766   age201_m22            0.0000     1.3235E+02     1.3725   0.0716   101.8311
 25      0.0000     0.0000E+00    0.0000E+00    1.800000E+10  0.00010  2.510E-05    0   0.4735   age213_m22            0.0000     1.6329E+02     1.4097   0.0060   101.0119
 26      0.0000     0.0000E+00    0.0000E+00    1.000000E+06  0.00040  8.458E-03    0   1.0000   age020_m32            0.0000     4.4039E+03    11.0193   3.5108    77.1180
 27      0.0000     0.0000E+00    0.0000E+00    3.160000E+06  0.00040  3.973E-02    0   1.0000   age045_m32            0.0000     1.0435E+03     5.4558   2.7206    91.1217
 28      0.0000     0.0000E+00    0.0000E+00    5.010000E+06  0.00040  1.935E-02    0   0.9532   age055_m32            0.0000     3.1664E+03     9.8180   2.9786    83.6434
 29      0.0000     0.0000E+00    0.0000E+00    6.610000E+06  0.00040  1.204E-02    0   0.9243   age061_m32            0.0000     3.6068E+03    10.2121   3.3030    81.5081
 30      0.0000     0.0000E+00    0.0000E+00    8.710000E+06  0.00040  9.433E-03    0   0.9001   age067_m32            0.0000     3.1799E+03     9.5534   3.2728    82.5928
 31      0.0000     0.0000E+00    0.0000E+00    1.000000E+07  0.00040  8.053E-03    0   0.8877   age070_m32            0.0000     3.0167E+03     9.2854   3.2358    83.1216
 32      0.0000     0.0000E+00    0.0000E+00    1.445000E+07  0.00040  7.027E-03    0   0.8578   age078_m32            0.0000     1.5165E+03     6.7601   2.6895    89.2934
 33      0.0000     0.0000E+00    0.0000E+00    2.512000E+07  0.00040  4.707E-03    0   0.8166   age090_m32            0.0000     6.6257E+02     4.4585   2.3793    94.0007
 34      0.0000     0.0000E+00    0.0000E+00    4.000000E+07  0.00040  3.714E-03    0   0.7827   age104_m32            0.0000     1.6829E+02     2.0823   2.1545    98.5422
 35      0.1264     1.1026E-02    1.5611E-02    5.500000E+07  0.00040  2.982E-03    0   0.7593   age110_m32            0.0000     1.1516E+02     1.4301   2.0851   100.2354
 36      1.3247     1.5755E-01    2.0984E-01    1.015200E+08  0.00040  2.188E-03    0   0.7143   age116_m32            0.0000     8.5774E+02     3.9884   1.7841   106.5050
 37      2.1984     3.3851E-01    4.3274E-01    1.609000E+08  0.00040  1.690E-03    0   0.6856   age120_m32            0.0000     1.8068E+03     5.9508   1.5575   110.1852
 38      0.0000     0.0000E+00    0.0000E+00    2.861200E+08  0.00040  1.152E-03    0   0.6509   age125_m32            0.0000     2.7931E+03     7.8670   1.3246   112.7075
 39      0.0000     0.0000E+00    0.0000E+00    5.088000E+08  0.00040  7.331E-04    0   0.6182   age130_m32            0.0000     3.2505E+03     8.7268   1.1583   113.6608
 40      0.0000     0.0000E+00    0.0000E+00    9.047900E+08  0.00040  3.960E-04    0   0.5890   age135_m32            0.0000     1.4934E+03     6.5599   0.7331   110.5331
 41      0.0000     0.0000E+00    0.0000E+00    1.278050E+09  0.00040  2.854E-04    0   0.5687   age138_m32            0.0000     9.5345E+02     5.0994   0.4440   111.9159
 42      0.5514     5.6697E-01    5.9540E-01    1.434000E+09  0.00040  2.531E-04    0   0.5632   age139_m32            0.0000     9.0479E+02     4.9306   0.3819   111.8525
 43     41.1342     7.1937E+01    7.2244E+01    2.500000E+09  0.00040  1.488E-04    0   0.5386   age150_m32            0.0000     5.3210E+02     3.9928   0.1327   109.4639
 44      8.5030     2.4364E+01    2.3618E+01    4.250000E+09  0.00040  9.082E-05    0   0.5199   age158_m32            0.0000     1.4826E+02     1.9946   0.0651   104.2871
 45      0.0590     2.4115E-01    2.2824E-01    6.250000E+09  0.00040  6.362E-05    0   0.5076   age166_m32            0.0000     3.4832E+02     1.6926   0.0499    99.4045
 46      0.0000     0.0000E+00    0.0000E+00    7.500000E+09  0.00040  5.289E-05    0   0.5027   age171_m32            0.0000     4.5953E+02     1.9079   0.0188    97.9091
 47      0.0000     0.0000E+00    0.0000E+00    1.000000E+10  0.00040  3.972E-05    0   0.4948   age181_m32            0.0000     5.6216E+02     2.0926  -0.0389    96.4253
 48      0.0000     0.0000E+00    0.0000E+00    1.300000E+10  0.00040  3.283E-05    0   0.4870   age193_m32            0.0000     3.1372E+02     1.9166  -0.0988    99.8875
 49      0.0000     0.0000E+00    0.0000E+00    1.500000E+10  0.00040  2.925E-05    0   0.4854   age201_m32            0.0000     2.3341E+02     2.0236  -0.1264   101.9301
 50      0.0000     0.0000E+00    0.0000E+00    1.800000E+10  0.00040  2.469E-05    0   0.4819   age213_m32            0.0000     2.2518E+02     2.1667  -0.1716   102.6258
 51      0.0000     0.0000E+00    0.0000E+00    1.000000E+06  0.00400  1.114E-02    0   1.0000   age020_m42            0.0000     4.2513E+03    10.7136   3.4427    77.5456
 52      0.0000     0.0000E+00    0.0000E+00    3.160000E+06  0.00400  4.073E-02    0   0.9999   age045_m42            0.0000     5.6847E+02     3.8989   2.4044    94.3517
 53      0.0000     0.0000E+00    0.0000E+00    5.010000E+06  0.00400  2.534E-02    0   0.9488   age055_m42            0.0000     1.9981E+03     7.4049   2.8471    86.4958
 54      0.0000     0.0000E+00    0.0000E+00    6.610000E+06  0.00400  2.583E-02    0   0.9220   age061_m42            0.0000     3.1487E+02     2.8174   2.2135    95.6119
 55      0.0000     0.0000E+00    0.0000E+00    8.710000E+06  0.00400  1.706E-02    0   0.8983   age067_m42            0.0000     9.6008E+02     5.3800   2.0518    92.5895
 56      0.0000     0.0000E+00    0.0000E+00    1.000000E+07  0.00400  1.271E-02    0   0.8862   age070_m42            0.0000     1.6424E+03     7.2103   2.0459    90.3749
 57      0.0000     0.0000E+00    0.0000E+00    1.445000E+07  0.00400  7.666E-03    0   0.8571   age078_m42            0.0000     2.4667E+03     8.4296   2.4738    86.3966
 58      0.0000     0.0000E+00    0.0000E+00    2.512000E+07  0.00400  5.070E-03    0   0.8174   age090_m42            0.0000     1.4126E+03     6.5912   1.9120    92.0468
 59      0.0000     0.0000E+00    0.0000E+00    4.000000E+07  0.00400  3.505E-03    0   0.7851   age104_m42            0.0000     7.2126E+02     4.4268   1.5786    95.6866
 60      0.0000     0.0000E+00    0.0000E+00    5.500000E+07  0.00400  3.059E-03    0   0.7629   age110_m42            0.0000     1.0196E+02     1.3083   1.6015   102.5066
 61      0.0000     0.0000E+00    0.0000E+00    1.015200E+08  0.00400  2.268E-03    0   0.7207   age116_m42            0.0000     1.5314E+03     5.8537   1.4716   110.4524
 62      0.0000     0.0000E+00    0.0000E+00    1.609000E+08  0.00400  1.720E-03    0   0.6930   age120_m42            0.0000     1.8749E+03     6.7496   1.3268   112.4520
 63      0.0000     0.0000E+00    0.0000E+00    2.861200E+08  0.00400  1.079E-03    0   0.6613   age125_m42            0.0000     1.9484E+03     6.9613   0.9761   112.6980
 64      0.0000     0.0000E+00    0.0000E+00    5.088000E+08  0.00400  6.261E-04    0   0.6313   age130_m42            0.0000     2.4041E+03     7.6627   0.7741   116.1938
 65      0.0000     0.0000E+00    0.0000E+00    9.047900E+08  0.00400  3.535E-04    0   0.6024   age135_m42            0.0000     1.2779E+03     6.0312   0.3943   115.0691
 66      0.0000     0.0000E+00    0.0000E+00    1.278050E+09  0.00400  2.677E-04    0   0.5837   age138_m42            0.0000     1.2325E+03     5.9721  -0.2561   109.8941
 67      0.0000     0.0000E+00    0.0000E+00    1.434000E+09  0.00400  1.910E-04    0   0.5716   age139_m42            0.0000     1.0641E+03     5.8647  -0.0995   111.6023
 68      0.0000     0.0000E+00    0.0000E+00    2.500000E+09  0.00400  9.818E-05    0   0.5463   age150_m42            0.0000     1.2898E+03     5.2135  -0.3255   104.4163
 69      0.0000     0.0000E+00    0.0000E+00    4.250000E+09  0.00400  5.491E-05    0   0.5269   age158_m42            0.0000     1.6685E+03     5.0969  -0.4286   100.5139
 70      0.0000     0.0000E+00    0.0000E+00    6.250000E+09  0.00400  3.857E-05    0   0.5151   age166_m42            0.0000     2.1411E+03     5.6735  -0.5431    98.6535
 71      0.0000     0.0000E+00    0.0000E+00    7.500000E+09  0.00400  3.243E-05    0   0.5110   age171_m42            0.0000     2.4548E+03     6.0721  -0.6161    97.8484
 72      0.0000     0.0000E+00    0.0000E+00    1.000000E+10  0.00400  2.424E-05    0   0.5028   age181_m42            0.0000     2.9022E+03     6.5491  -0.6855    96.8086
 73      0.0000     0.0000E+00    0.0000E+00    1.300000E+10  0.00400  1.883E-05    0   0.4927   age193_m42            0.0000     3.2521E+03     6.8386  -0.7175    96.1342
 74      0.0000     0.0000E+00    0.0000E+00    1.500000E+10  0.00400  1.685E-05    0   0.4919   age201_m42            0.0000     3.1385E+03     6.7105  -0.7151    96.2065
 75      0.0000     0.0000E+00    0.0000E+00    1.800000E+10  0.00400  1.452E-05    0   0.4874   age213_m42            0.0000     2.9389E+03     6.5048  -0.7056    96.6005
 76      0.0000     0.0000E+00    0.0000E+00    1.000000E+06  0.00800  1.286E-02    0   1.0000   age020_m52            0.0000     3.6900E+03     9.9727   3.4117    79.5791
 77      0.0000     0.0000E+00    0.0000E+00    3.160000E+06  0.00800  3.147E-02    0   0.9966   age045_m52            0.0000     3.5145E+03     9.8243   3.3208    81.1431
 78      0.0000     0.0000E+00    0.0000E+00    5.010000E+06  0.00800  2.664E-02    0   0.9443   age055_m52            0.0000     2.3941E+03     7.9231   2.9763    85.2004
 79      0.0000     0.0000E+00    0.0000E+00    6.610000E+06  0.00800  2.151E-02    0   0.9177   age061_m52            0.0000     1.5624E+03     6.3346   1.6385    91.9746
 80      0.0000     0.0000E+00    0.0000E+00    8.710000E+06  0.00800  1.628E-02    0   0.8948   age067_m52            0.0000     1.1864E+03     5.9544   2.0066    92.7615
 81      0.0000     0.0000E+00    0.0000E+00    1.000000E+07  0.00800  1.215E-02    0   0.8827   age070_m52            0.0000     1.5251E+03     6.7630   2.3569    90.6052
 82      0.0000     0.0000E+00    0.0000E+00    1.445000E+07  0.00800  8.739E-03    0   0.8552   age078_m52            0.0000     1.0471E+03     5.5370   2.3880    92.5243
 83      0.0000     0.0000E+00    0.0000E+00    2.512000E+07  0.00800  5.676E-03    0   0.8162   age090_m52            0.0000     3.6624E+02     3.3889   1.9527    98.6754
 84      0.0000     0.0000E+00    0.0000E+00    4.000000E+07  0.00800  3.939E-03    0   0.7841   age104_m52            0.0000     1.8788E+02     1.9069   1.7791   102.0727
 85      0.0000     0.0000E+00    0.0000E+00    5.500000E+07  0.00800  3.155E-03    0   0.7627   age110_m52            0.0000     2.6980E+02     1.6601   1.7421   104.5111
 86      0.0000     0.0000E+00    0.0000E+00    1.015200E+08  0.00800  2.206E-03    0   0.7226   age116_m52            0.0000     9.4520E+02     4.5263   1.5411   109.6175
 87      0.0000     0.0000E+00    0.0000E+00    1.609000E+08  0.00800  1.596E-03    0   0.6963   age120_m52            0.0000     1.3533E+03     5.7073   1.3223   111.6546
 88      0.0000     0.0000E+00    0.0000E+00    2.861200E+08  0.00800  1.002E-03    0   0.6665   age125_m52            0.0000     2.7276E+03     8.5176   1.0089   115.4971
 89      0.0000     0.0000E+00    0.0000E+00    5.088000E+08  0.00800  5.759E-04    0   0.6377   age130_m52            0.0000     3.2221E+03     9.7039   0.6512   119.9028
 90      0.0000     0.0000E+00    0.0000E+00    9.047900E+08  0.00800  2.972E-04    0   0.6086   age135_m52            0.0000     2.1545E+03     8.5245   0.1507   116.6883
 91      0.0000     0.0000E+00    0.0000E+00    1.278050E+09  0.00800  2.242E-04    0   0.5907   age138_m52            0.0000     1.9025E+03     7.0821  -0.4171   112.2903
 92      0.0000     0.0000E+00    0.0000E+00    1.434000E+09  0.00800  1.645E-04    0   0.5787   age139_m52            0.0000     1.5505E+03     6.4372  -0.2668   111.5722
 93      0.0000     0.0000E+00    0.0000E+00    2.500000E+09  0.00800  7.723E-05    0   0.5519   age150_m52            0.0000     2.2287E+03     6.6144  -0.5690   105.9437
 94      0.0000     0.0000E+00    0.0000E+00    4.250000E+09  0.00800  4.151E-05    0   0.5320   age158_m52            0.0000     2.4406E+03     6.5389  -0.6269   102.8739
 95      0.0000     0.0000E+00    0.0000E+00    6.250000E+09  0.00800  3.010E-05    0   0.5197   age166_m52            0.0000     3.3045E+03     7.3608  -0.8027   100.7299
 96      0.0000     0.0000E+00    0.0000E+00    7.500000E+09  0.00800  2.467E-05    0   0.5139   age171_m52            0.0000     3.5458E+03     7.6010  -0.8398   100.1716
 97      0.0000     0.0000E+00    0.0000E+00    1.000000E+10  0.00800  1.862E-05    0   0.5054   age181_m52            0.0000     4.2964E+03     8.3745  -0.9605    99.4444
 98      0.0000     0.0000E+00    0.0000E+00    1.300000E+10  0.00800  1.433E-05    0   0.4988   age193_m52            0.0000     5.2400E+03     8.8250  -1.0000    98.4768
 99      0.0000     0.0000E+00    0.0000E+00    1.500000E+10  0.00800  1.244E-05    0   0.4936   age201_m52            0.0000     5.6470E+03     8.9550  -1.0000    98.0992
100      0.0000     0.0000E+00    0.0000E+00    1.800000E+10  0.00800  1.070E-05    0   0.4888   age213_m52            0.0000     5.9466E+03     9.0422  -1.0000    97.0549
101      0.0000     0.0000E+00    0.0000E+00    1.000000E+06  0.02000  1.989E-02    0   1.0000   age020_m62            0.0000     4.4096E+03    10.7893   3.4080    78.1676
102      0.0000     0.0000E+00    0.0000E+00    3.160000E+06  0.02000  3.772E-02    0   0.9858   age045_m62            0.0000     3.8561E+03    10.1481   3.2550    80.6162
103      0.0000     0.0000E+00    0.0000E+00    5.010000E+06  0.02000  3.227E-02    0   0.9342   age055_m62            0.0000     1.1313E+03     5.4701   2.6881    90.2456
104      0.0000     0.0000E+00    0.0000E+00    6.610000E+06  0.02000  2.387E-02    0   0.9090   age061_m62            0.0000     2.0755E+03     7.9432   2.4405    88.7352
105      0.0000     0.0000E+00    0.0000E+00    8.710000E+06  0.02000  1.102E-02    0   0.8861   age067_m62            0.0000     6.3198E+03    14.3213   2.0924    81.6308
106      0.0000     0.0000E+00    0.0000E+00    1.000000E+07  0.02000  1.011E-02    0   0.8751   age070_m62            0.0000     4.4557E+03    11.9363   2.1034    84.8698
107      0.0000     0.0000E+00    0.0000E+00    1.445000E+07  0.02000  7.331E-03    0   0.8472   age078_m62            0.0000     3.1479E+03     9.8327   2.1130    87.0568
108      0.0000     0.0000E+00    0.0000E+00    2.512000E+07  0.02000  4.206E-03    0   0.8099   age090_m62            0.0000     3.1540E+03     9.6706   2.0235    86.5512
109      0.0000     0.0000E+00    0.0000E+00    4.000000E+07  0.02000  3.373E-03    0   0.7799   age104_m62            0.0000     4.7534E+02     3.6481   1.7754    98.1223
110      0.0000     0.0000E+00    0.0000E+00    5.500000E+07  0.02000  2.747E-03    0   0.7595   age110_m62            0.0000     2.1006E+02     1.8038   1.6831   103.1498
111      0.0000     0.0000E+00    0.0000E+00    1.015200E+08  0.02000  1.878E-03    0   0.7221   age116_m62            0.0000     1.0708E+03     4.3822   1.5069   110.2804
112      0.0000     0.0000E+00    0.0000E+00    1.609000E+08  0.02000  1.378E-03    0   0.6978   age120_m62            0.0000     2.0808E+03     6.6550   1.3364   114.0137
113      0.0057     1.6677E-03    2.0835E-03    2.861200E+08  0.02000  8.869E-04    0   0.6700   age125_m62            0.0000     3.9606E+03     9.5793   0.9400   119.7572
114      0.0000     0.0000E+00    0.0000E+00    5.088000E+08  0.02000  4.834E-04    0   0.6430   age130_m62            0.0000     3.6699E+03    10.2711   0.5110   121.8336
115      0.0000     0.0000E+00    0.0000E+00    9.047900E+08  0.02000  2.312E-04    0   0.6152   age135_m62            0.0000     1.8533E+03     8.0310  -0.0464   118.3379
116      0.0000     0.0000E+00    0.0000E+00    1.278050E+09  0.02000  1.387E-04    0   0.5927   age138_m62            0.0000     1.4773E+03     6.4244  -0.3832   111.2459
117      0.0000     0.0000E+00    0.0000E+00    1.434000E+09  0.02000  1.168E-04    0   0.5865   age139_m62            0.0000     1.5619E+03     6.3019  -0.3973   109.0657
118      0.0000     0.0000E+00    0.0000E+00    2.500000E+09  0.02000  5.505E-05    0   0.5610   age150_m62            0.0000     2.6777E+03     7.2877  -0.7388   104.4471
119      0.0000     0.0000E+00    0.0000E+00    4.250000E+09  0.02000  3.070E-05    0   0.5407   age158_m62            0.0000     4.4147E+03     8.8866  -1.0000   103.1731
120      0.0000     0.0000E+00    0.0000E+00    6.250000E+09  0.02000  2.104E-05    0   0.5277   age166_m62            0.0000     5.6707E+03     9.1146  -1.0000   100.0551
121      0.0000     0.0000E+00    0.0000E+00    7.500000E+09  0.02000  1.770E-05    0   0.5223   age171_m62            0.0000     6.4540E+03     9.5733  -1.0000    98.0534
122      0.0000     0.0000E+00    0.0000E+00    1.000000E+10  0.02000  1.297E-05    0   0.5121   age181_m62            0.0000     8.3558E+03    11.1619  -1.0000    94.1237
123      0.0000     0.0000E+00    0.0000E+00    1.300000E+10  0.02000  9.691E-06    0   0.5047   age193_m62            0.0000     9.6309E+03    12.2199  -1.0000    92.0581
124      0.0000     0.0000E+00    0.0000E+00    1.500000E+10  0.02000  8.360E-06    0   0.4999   age201_m62            0.0000     1.0775E+04    13.1178  -1.0000    90.2769
125      0.0000     0.0000E+00    0.0000E+00    1.800000E+10  0.02000  6.911E-06    0   0.4946   age213_m62            0.0000     1.2134E+04    14.0667  -1.0000    88.4323
126      0.0000     0.0000E+00    0.0000E+00    1.000000E+06  0.05000  2.651E-02    0   0.9998   age020_m72            0.0000     4.1423E+03    10.2121   3.4103    79.1442
127      0.0000     0.0000E+00    0.0000E+00    3.160000E+06  0.05000  4.817E-02    0   0.9577   age045_m72            0.0000     2.5986E+03     7.9904   3.0989    84.6121
128      0.0000     0.0000E+00    0.0000E+00    5.010000E+06  0.05000  3.101E-02    0   0.9147   age055_m72            0.0000     2.3519E+03     7.9114   2.7324    87.3129
129      0.0000     0.0000E+00    0.0000E+00    6.610000E+06  0.05000  1.472E-02    0   0.8877   age061_m72            0.0000     5.1252E+03    12.4075   2.3126    83.6326
130      0.0000     0.0000E+00    0.0000E+00    8.710000E+06  0.05000  1.050E-02    0   0.8638   age067_m72            0.0000     3.6092E+03     9.9541   2.7073    84.8204
131      0.0000     0.0000E+00    0.0000E+00    1.000000E+07  0.05000  8.954E-03    0   0.8524   age070_m72            0.0000     2.6723E+03     7.9140   2.9896    85.4667
132      0.0000     0.0000E+00    0.0000E+00    1.445000E+07  0.05000  6.392E-03    0   0.8262   age078_m72            0.0000     2.2350E+03     7.0592   2.9284    86.8351
133      0.0000     0.0000E+00    0.0000E+00    2.512000E+07  0.05000  4.207E-03    0   0.7902   age090_m72            0.0000     1.0438E+03     4.7650   2.5145    92.5457
134      0.0000     0.0000E+00    0.0000E+00    4.000000E+07  0.05000  3.198E-03    0   0.7618   age104_m72            0.0000     4.1355E+02     2.6277   1.9194   104.1370
135      0.2163     2.1708E-02    3.0082E-02    5.500000E+07  0.05000  2.593E-03    0   0.7432   age110_m72            0.0000     7.0447E+02     3.5460   1.8047   106.9484
136      0.0000     0.0000E+00    0.0000E+00    1.015200E+08  0.05000  1.716E-03    0   0.7092   age116_m72            0.0000     1.5283E+03     5.3579   1.5859   110.9374
137      0.0605     1.2930E-02    1.6578E-02    1.609000E+08  0.05000  1.218E-03    0   0.6876   age120_m72            0.0000     2.7277E+03     7.7311   1.2980   114.8519
138      0.0000     0.0000E+00    0.0000E+00    2.861200E+08  0.05000  7.047E-04    0   0.6618   age125_m72            0.0000     4.0621E+03    10.2242   0.7354   119.8532
139      0.0000     0.0000E+00    0.0000E+00    5.088000E+08  0.05000  3.590E-04    0   0.6356   age130_m72            0.0000     3.3625E+03    10.2423   0.1689   121.7872
140      0.0000     0.0000E+00    0.0000E+00    9.047900E+08  0.05000  1.484E-04    0   0.6088   age135_m72            0.0000     2.1485E+03     7.9096  -0.4937   111.1112
141      0.0000     0.0000E+00    0.0000E+00    1.278050E+09  0.05000  9.435E-05    0   0.5924   age138_m72            0.0000     3.3318E+03     8.8951  -0.8579   106.2005
142      0.0000     0.0000E+00    0.0000E+00    1.434000E+09  0.05000  7.827E-05    0   0.5847   age139_m72            0.0000     3.4227E+03     8.6842  -0.8364   105.2158
143      0.0000     0.0000E+00    0.0000E+00    2.500000E+09  0.05000  3.759E-05    0   0.5583   age150_m72            0.0000     5.4064E+03     9.2202  -1.0000    99.7024
144      0.0000     0.0000E+00    0.0000E+00    4.250000E+09  0.05000  1.842E-05    0   0.5374   age158_m72            0.0000     8.6837E+03    12.0790  -1.0000    90.6161
145      0.0000     0.0000E+00    0.0000E+00    6.250000E+09  0.05000  1.207E-05    0   0.5242   age166_m72            0.0000     1.2399E+04    14.9262  -1.0000    83.8129
146      0.0000     0.0000E+00    0.0000E+00    7.500000E+09  0.05000  9.993E-06    0   0.5183   age171_m72            0.0000     1.3085E+04    15.4519  -1.0000    82.5688
147      0.0000     0.0000E+00    0.0000E+00    1.000000E+10  0.05000  7.291E-06    0   0.5081   age181_m72            0.0000     1.5462E+04    16.9543  -1.0000    79.1703
148      0.0000     0.0000E+00    0.0000E+00    1.300000E+10  0.05000  5.316E-06    0   0.5018   age193_m72            0.0000     1.9340E+04    19.0541  -1.0000    74.1782
149      0.0000     0.0000E+00    0.0000E+00    1.500000E+10  0.05000  4.497E-06    0   0.4972   age201_m72            0.0000     2.1043E+04    19.8581  -1.0000    72.4406
150      0.0000     0.0000E+00    0.0000E+00    1.800000E+10  0.05000  3.739E-06    0   0.4924   age213_m72            0.0000     2.3439E+04    20.8897  -1.0000    69.8438


## Synthesis Results - Average & Chains ##

# j      x_j: min, <> & last-chain-values for 1 ...  7 chains
  1      0.0000      0.0032      0.0000      0.0000      0.0013      0.0000      0.0000      0.0000      0.0000
  2     44.3059     43.4066     44.1809     43.5819     44.2430     43.6571     43.6573     43.4491     43.7370
  3      0.0000      0.0088      0.0002      0.0000      0.0000      0.0000      0.0000      0.0000      0.0000
  4      0.0000      0.0040      0.0000      0.0000      0.0007      0.0000      0.0000      0.0000      0.0073
  5      0.0000      0.0026      0.0004      0.0010      0.0000      0.0000      0.0000      0.0000      0.0044
  6      0.0000      0.0032      0.0060      0.0000      0.0000      0.0152      0.0000      0.0012      0.0000
  7      0.0000      0.0035      0.0000      0.0000      0.0000      0.0160      0.0000      0.0005      0.0000
  8      0.0000      0.0088      0.0042      0.0000      0.0020      0.0299      0.0000      0.0000      0.0000
  9      0.0000      0.0192      0.0018      0.0000      0.0000      0.0000      0.0062      0.0667      0.0383
 10      0.0000      0.0260      0.0021      0.0089      0.0014      0.0704      0.0000      0.0037      0.0148
 11      5.0099      4.9920      5.0491      4.9193      5.0517      4.8684      4.9435      5.0587      5.0016
 12      0.0000      0.0322      0.0012      0.1652      0.0019      0.1089      0.0000      0.0000      0.0000
 13      0.1311      0.0311      0.0018      0.1795      0.0006      0.0000      0.0133      0.1089      0.0996
 14      0.0000      0.0216      0.0036      0.0000      0.0007      0.0096      0.1343      0.0062      0.0304
 15      0.0000      0.0332      0.0076      0.0000      0.0031      0.0299      0.0185      0.0000      0.0000
 16      0.0000      0.0363      0.0058      0.0000      0.0061      0.0000      0.0000      0.0000      0.0000
 17      0.0000      0.0412      0.0000      0.0453      0.0000      0.0000      0.0239      0.0431      0.0000
 18      0.0884      0.0541      0.0002      0.0000      0.0021      0.0516      0.0290      0.2809      0.1305
 19      0.0000      0.0453      0.0015      0.0000      0.0030      0.0000      0.0061      0.1016      0.0844
 20      0.0000      0.0410      0.0000      0.1309      0.0026      0.0000      0.0186      0.0000      0.0164
 21      0.0000      0.0529      0.0020      0.1046      0.0018      0.0485      0.1060      0.3001      0.0054
 22      0.2397      0.3253      0.3234      0.2460      0.3205      0.2393      0.2481      0.4966      0.3990
 23      0.0000      0.0329      0.0045      0.1414      0.0031      0.0000      0.0000      0.0184      0.0313
 24      0.0000      0.0497      0.0007      0.1328      0.0001      0.0193      0.2517      0.0000      0.0000
 25      0.0000      0.0352      0.0000      0.0000      0.0005      0.1056      0.0807      0.0582      0.0000
 26      0.0000      0.0031      0.0034      0.0000      0.0016      0.0000      0.0000      0.0000      0.0000
 27      0.0000      0.0106      0.0026      0.0000      0.0000      0.0000      0.0049      0.0225      0.0000
 28      0.0000      0.0055      0.0000      0.0000      0.0000      0.0051      0.0000      0.0000      0.0000
 29      0.0000      0.0037      0.0017      0.0000      0.0006      0.0000      0.0000      0.0000      0.0000
 30      0.0000      0.0034      0.0011      0.0000      0.0003      0.0000      0.0055      0.0000      0.0000
 31      0.0000      0.0039      0.0009      0.0000      0.0000      0.0000      0.0000      0.0000      0.0000
 32      0.0000      0.0068      0.0006      0.0000      0.0000      0.0182      0.0000      0.0000      0.0000
 33      0.0000      0.0111      0.0000      0.0000      0.0011      0.0000      0.0458      0.0675      0.0000
 34      0.0000      0.0152      0.0020      0.0000      0.0046      0.0000      0.0000      0.0000      0.0000
 35      0.1264      0.0178      0.0011      0.0000      0.0023      0.0000      0.0043      0.0568      0.1063
 36      1.3247      1.3000      1.3210      1.2867      1.3179      1.2423      1.3196      1.2400      1.3125
 37      2.1984      2.1615      2.1587      2.2123      2.1600      2.2291      2.1328      2.1639      2.1033
 38      0.0000      0.0499      0.0007      0.0000      0.0015      0.0000      0.0921      0.2593      0.0000
 39      0.0000      0.0348      0.0000      0.0000      0.0000      0.0000      0.0105      0.0000      0.0000
 40      0.0000      0.4810      0.6113      0.2627      0.6125      0.4943      0.0736      0.2853      0.0000
 41      0.0000      0.0696      0.0034      0.4670      0.0000      0.2251      0.1829      0.0000      0.0000
 42      0.5514      0.0536      0.0030      0.0000      0.0003      0.0357      0.0000      0.1491      0.2507
 43     41.1342     40.5754     41.2512     40.7021     41.2411     40.6751     40.8515     40.1851     40.6827
 44      8.5030      8.6884      8.7927      8.6359      8.8189      8.6999      8.6201      8.7837      8.7259
 45      0.0590      0.0326      0.0060      0.0000      0.0026      0.0436      0.0223      0.0832      0.1632
 46      0.0000      0.0262      0.0042      0.0000      0.0049      0.0000      0.0000      0.0016      0.0485
 47      0.0000      0.0195      0.0000      0.0000      0.0036      0.0000      0.0000      0.0752      0.0000
 48      0.0000      0.0262      0.0010      0.0000      0.0030      0.0705      0.0000      0.0000      0.0466
 49      0.0000      0.0263      0.0001      0.0000      0.0011      0.0000      0.0468      0.0000      0.0000
 50      0.0000      0.0282      0.0000      0.0244      0.0022      0.1452      0.0421      0.0042      0.0000
 51      0.0000      0.0039      0.0032      0.0000      0.0016      0.0000      0.0000      0.0000      0.0000
 52      0.0000      0.0160      0.0023      0.0000      0.0007      0.0000      0.0193      0.0084      0.0000
 53      0.0000      0.0044      0.0016      0.0000      0.0009      0.0000      0.0000      0.0000      0.0000
 54      0.0000      0.0178      0.0008      0.0000      0.0021      0.0658      0.0210      0.0407      0.0000
 55      0.0000      0.0146      0.0014      0.0377      0.0002      0.0000      0.0000      0.0000      0.0000
 56      0.0000      0.0123      0.0000      0.0000      0.0000      0.0000      0.0000      0.0154      0.0258
 57      0.0000      0.0061      0.0040      0.0044      0.0005      0.0000      0.0000      0.0000      0.0000
 58      0.0000      0.0121      0.0045      0.0000      0.0036      0.0816      0.0000      0.0000      0.0000
 59      0.0000      0.0100      0.0043      0.0000      0.0000      0.0000      0.0000      0.0483      0.0000
 60      0.0000      0.0178      0.0010      0.0000      0.0010      0.0000      0.0047      0.0000      0.0000
 61      0.0000      0.0288      0.0023      0.0388      0.0038      0.0000      0.0013      0.0287      0.0820
 62      0.0000      0.0357      0.0005      0.0000      0.0031      0.0000      0.2371      0.0000      0.0694
 63      0.0000      0.0181      0.0000      0.0000      0.0014      0.0395      0.0047      0.0000      0.0163
 64      0.0000      0.0239      0.0011      0.0000      0.0011      0.0000      0.0000      0.0000      0.0609
 65      0.0000      0.0230      0.0000      0.0000      0.0020      0.0000      0.0820      0.0000      0.0000
 66      0.0000      0.0045      0.0023      0.0000      0.0010      0.0000      0.0000      0.0000      0.0127
 67      0.0000      0.0100      0.0001      0.0000      0.0000      0.0257      0.0000      0.0000      0.0000
 68      0.0000      0.0067      0.0007      0.0000      0.0026      0.0000      0.0199      0.0348      0.0000
 69      0.0000      0.0065      0.0048      0.0000      0.0032      0.0000      0.0107      0.0000      0.0000
 70      0.0000      0.0045      0.0031      0.0315      0.0007      0.0000      0.0000      0.0000      0.0000
 71      0.0000      0.0047      0.0060      0.0000      0.0000      0.0000      0.0000      0.0000      0.0000
 72      0.0000      0.0030      0.0000      0.0000      0.0001      0.0028      0.0000      0.0000      0.0000
 73      0.0000      0.0018      0.0025      0.0000      0.0005      0.0000      0.0000      0.0000      0.0000
 74      0.0000      0.0036      0.0014      0.0000      0.0030      0.0000      0.0061      0.0000      0.0000
 75      0.0000      0.0024      0.0000      0.0000      0.0000      0.0000      0.0000      0.0000      0.0000
 76      0.0000      0.0033      0.0015      0.0000      0.0009      0.0000      0.0000      0.0000      0.0000
 77      0.0000      0.0036      0.0019      0.0000      0.0000      0.0000      0.0000      0.0170      0.0019
 78      0.0000      0.0067      0.0000      0.0287      0.0000      0.0000      0.0000      0.0000      0.0000
 79      0.0000      0.0086      0.0000      0.0000      0.0000      0.0000      0.0000      0.0000      0.0000
 80      0.0000      0.0113      0.0024      0.0000      0.0000      0.0000      0.0102      0.0000      0.0000
 81      0.0000      0.0074      0.0037      0.0191      0.0012      0.0000      0.0000      0.0000      0.0000
 82      0.0000      0.0103      0.0023      0.0000      0.0019      0.0000      0.0000      0.0000      0.0000
 83      0.0000      0.0205      0.0097      0.0661      0.0004      0.0000      0.0000      0.0000      0.0224
 84      0.0000      0.0205      0.0000      0.0000      0.0048      0.0188      0.0259      0.0720      0.0000
 85      0.0000      0.0212      0.0018      0.0000      0.0001      0.0000      0.0000      0.0000      0.0000
 86      0.0000      0.0246      0.0003      0.0855      0.0000      0.0281      0.0000      0.0227      0.0000
 87      0.0000      0.0255      0.0000      0.0000      0.0005      0.0681      0.0000      0.0531      0.0000
 88      0.0000      0.0182      0.0031      0.0000      0.0003      0.0000      0.0000      0.0000      0.0000
 89      0.0000      0.0134      0.0000      0.0114      0.0004      0.0000      0.0000      0.0000      0.0000
 90      0.0000      0.0075      0.0000      0.0000      0.0000      0.0085      0.0000      0.0000      0.0000
 91      0.0000      0.0050      0.0018      0.0000      0.0006      0.0000      0.0000      0.0514      0.0000
 92      0.0000      0.0056      0.0009      0.0000      0.0009      0.0000      0.0000      0.0000      0.0000
 93      0.0000      0.0038      0.0014      0.0000      0.0000      0.0000      0.0000      0.0000      0.0005
 94      0.0000      0.0051      0.0012      0.0023      0.0000      0.0000      0.0000      0.0000      0.0057
 95      0.0000      0.0040      0.0015      0.0000      0.0000      0.0000      0.0000      0.0000      0.0000
 96      0.0000      0.0035      0.0000      0.0000      0.0000      0.0000      0.0000      0.0000      0.0000
 97      0.0000      0.0027      0.0009      0.0000      0.0000      0.0000      0.0000      0.0000      0.0000
 98      0.0000      0.0034      0.0011      0.0000      0.0017      0.0000      0.0023      0.0000      0.0000
 99      0.0000      0.0023      0.0000      0.0000      0.0000      0.0000      0.0000      0.0012      0.0000
100      0.0000      0.0029      0.0044      0.0000      0.0006      0.0000      0.0000      0.0000      0.0000
101      0.0000      0.0026      0.0008      0.0000      0.0000      0.0000      0.0154      0.0000      0.0000
102      0.0000      0.0031      0.0011      0.0000      0.0007      0.0000      0.0000      0.0000      0.0000
103      0.0000      0.0127      0.0003      0.0000      0.0000      0.0000      0.0281      0.0000      0.0000
104      0.0000      0.0134      0.0000      0.0000      0.0026      0.0109      0.0273      0.0000      0.0000
105      0.0000      0.0087      0.0000      0.0000      0.0012      0.0217      0.0014      0.0016      0.0000
106      0.0000      0.0090      0.0002      0.0000      0.0009      0.0000      0.0025      0.0125      0.0670
107      0.0000      0.0098      0.0000      0.0000      0.0000      0.0000      0.0000      0.0000      0.0153
108      0.0000      0.0075      0.0000      0.0000      0.0012      0.0000      0.0000      0.0000      0.0000
109      0.0000      0.0133      0.0045      0.0000      0.0000      0.0000      0.0336      0.0000      0.0000
110      0.0000      0.0141      0.0000      0.0000      0.0011      0.0000      0.0000      0.0000      0.0014
111      0.0000      0.0148      0.0000      0.0131      0.0000      0.0988      0.0221      0.0482      0.0333
112      0.0000      0.0236      0.0022      0.0000      0.0000      0.0370      0.0094      0.0000      0.0220
113      0.0057      0.0248      0.0000      0.0000      0.0000      0.0000      0.0000      0.0491      0.0994
114      0.0000      0.0138      0.0000      0.0000      0.0000      0.0195      0.0603      0.0000      0.0000
115      0.0000      0.0140      0.0018      0.0000      0.0000      0.0070      0.0000      0.0000      0.0000
116      0.0000      0.0059      0.0022      0.0000      0.0019      0.0000      0.0000      0.0000      0.0722
117      0.0000      0.0061      0.0000      0.0000      0.0018      0.0000      0.0000      0.0000      0.0000
118      0.0000      0.0047      0.0000      0.0000      0.0000      0.0000      0.0000      0.0000      0.0000
119      0.0000      0.0040      0.0011      0.0000      0.0008      0.0000      0.0000      0.0000      0.0000
120      0.0000      0.0019      0.0028      0.0000      0.0019      0.0000      0.0000      0.0000      0.0000
121      0.0000      0.0024      0.0019      0.0000      0.0018      0.0000      0.0000      0.0000      0.0000
122      0.0000      0.0021      0.0016      0.0000      0.0003      0.0000      0.0000      0.0000      0.0000
123      0.0000      0.0017      0.0010      0.0000      0.0000      0.0000      0.0000      0.0017      0.0000
124      0.0000      0.0021      0.0000      0.0000      0.0000      0.0009      0.0000      0.0000      0.0000
125      0.0000      0.0018      0.0036      0.0000      0.0022      0.0000      0.0000      0.0000      0.0000
126      0.0000      0.0040      0.0027      0.0164      0.0021      0.0000      0.0318      0.0000      0.0000
127      0.0000      0.0053      0.0011      0.0000      0.0011      0.0000      0.0000      0.0000      0.0000
128      0.0000      0.0051      0.0000      0.0000      0.0000      0.0000      0.0000      0.0000      0.0000
129      0.0000      0.0080      0.0019      0.0845      0.0009      0.0021      0.0294      0.0000      0.0000
130      0.0000      0.0074      0.0000      0.0000      0.0000      0.0000      0.0000      0.0000      0.0000
131      0.0000      0.0032      0.0021      0.0000      0.0000      0.0002      0.0000      0.0000      0.0000
132      0.0000      0.0050      0.0051      0.0000      0.0000      0.0000      0.0000      0.0000      0.0000
133      0.0000      0.0076      0.0000      0.0545      0.0009      0.0000      0.0000      0.0000      0.0000
134      0.0000      0.0170      0.0021      0.0012      0.0013      0.0791      0.0000      0.0000      0.0000
135      0.2163      0.0226      0.0000      0.0000      0.0003      0.1057      0.1076      0.0000      0.1291
136      0.0000      0.0244      0.0021      0.0000      0.0003      0.0081      0.0622      0.0000      0.0649
137      0.0605      0.0259      0.0025      0.1426      0.0018      0.0000      0.0031      0.0000      0.0965
138      0.0000      0.0341      0.0000      0.0066      0.0010      0.0550      0.0674      0.0329      0.0000
139      0.0000      0.0120      0.0024      0.0000      0.0002      0.0000      0.0000      0.0000      0.0077
140      0.0000      0.0052      0.0004      0.0126      0.0018      0.0000      0.0000      0.0000      0.0000
141      0.0000      0.0054      0.0000      0.0014      0.0009      0.0000      0.0000      0.0000      0.0000
142      0.0000      0.0061      0.0000      0.0138      0.0005      0.0000      0.0000      0.0000      0.0000
143      0.0000      0.0038      0.0005      0.0000      0.0000      0.0000      0.0000      0.0000      0.0000
144      0.0000      0.0037      0.0006      0.0000      0.0010      0.0000      0.0195      0.0000      0.0000
145      0.0000      0.0037      0.0051      0.0246      0.0004      0.0000      0.0000      0.0000      0.0000
146      0.0000      0.0047      0.0000      0.0000      0.0004      0.0000      0.0000      0.0000      0.0000
147      0.0000      0.0024      0.0000      0.0000      0.0012      0.0000      0.0000      0.0000      0.0000
148      0.0000      0.0027      0.0023      0.0000      0.0000      0.0000      0.0000      0.0181      0.0000
149      0.0000      0.0019      0.0004      0.0000      0.0015      0.0000      0.0000      0.0000      0.0000
150      0.0000      0.0018      0.0038      0.0000      0.0005      0.0000      0.0000      0.0000      0.0000

# j      m_j: min, <> & last-chain-values for 1 ...  7 chains
  1  0.0000E+00  1.8406E-04  0.0000E+00  0.0000E+00  7.6552E-05  0.0000E+00  0.0000E+00  0.0000E+00  0.0000E+00
  2  4.5174E-01  4.2586E-01  4.4164E-01  4.3014E-01  4.4442E-01  4.3215E-01  4.2823E-01  4.2414E-01  4.3644E-01
  3  0.0000E+00  2.0447E-04  3.6438E-06  0.0000E+00  0.0000E+00  0.0000E+00  0.0000E+00  0.0000E+00  0.0000E+00
  4  0.0000E+00  1.7471E-04  0.0000E+00  0.0000E+00  3.2977E-05  0.0000E+00  0.0000E+00  0.0000E+00  3.2355E-04
  5  0.0000E+00  1.4054E-04  2.2435E-05  5.7272E-05  0.0000E+00  0.0000E+00  0.0000E+00  0.0000E+00  2.4421E-04
  6  0.0000E+00  2.0920E-04  3.9644E-04  0.0000E+00  0.0000E+00  9.9969E-04  0.0000E+00  7.8432E-05  0.0000E+00
  7  0.0000E+00  2.8596E-04  1.7073E-07  0.0000E+00  0.0000E+00  1.3319E-03  0.0000E+00  3.9074E-05  0.0000E+00
  8  0.0000E+00  8.1503E-04  4.0200E-04  0.0000E+00  1.9177E-04  2.8027E-03  0.0000E+00  0.0000E+00  0.0000E+00
  9  0.0000E+00  1.9190E-03  1.8297E-04  0.0000E+00  0.0000E+00  0.0000E+00  6.1771E-04  6.6431E-03  3.8952E-03
 10  0.0000E+00  2.9826E-03  2.4666E-04  1.0317E-03  1.6258E-04  8.1499E-03  0.0000E+00  4.2575E-04  1.7299E-03
 11  7.1376E-01  6.8437E-01  7.0527E-01  6.7845E-01  7.0908E-01  6.7341E-01  6.7758E-01  6.9003E-01  6.9741E-01
 12  0.0000E+00  7.7121E-03  2.9378E-04  3.9858E-02  4.5871E-04  2.6354E-02  0.0000E+00  0.0000E+00  0.0000E+00
 13  3.7957E-02  8.6692E-03  5.1976E-04  5.0284E-02  1.7352E-04  0.0000E+00  3.7115E-03  3.0165E-02  2.8223E-02
 14  0.0000E+00  8.5356E-03  1.4576E-03  0.0000E+00  2.9688E-04  3.8150E-03  5.3082E-02  2.4474E-03  1.2217E-02
 15  0.0000E+00  1.9826E-02  4.6113E-03  0.0000E+00  1.8744E-03  1.8035E-02  1.1059E-02  0.0000E+00  0.0000E+00
 16  0.0000E+00  3.1383E-02  5.0795E-03  0.0000E+00  5.4260E-03  0.0000E+00  0.0000E+00  0.0000E+00  0.0000E+00
 17  0.0000E+00  3.9571E-02  0.0000E+00  4.3767E-02  0.0000E+00  0.0000E+00  2.2948E-02  4.1152E-02  0.0000E+00
 18  1.4363E-01  8.4630E-02  2.8167E-04  0.0000E+00  3.3716E-03  8.1355E-02  4.5393E-02  4.3686E-01  2.0751E-01
 19  0.0000E+00  1.0731E-01  3.5498E-03  0.0000E+00  7.2739E-03  0.0000E+00  1.4370E-02  2.3947E-01  2.0333E-01
 20  0.0000E+00  1.3888E-01  0.0000E+00  4.4607E-01  8.9487E-03  0.0000E+00  6.2997E-02  0.0000E+00  5.6497E-02
 21  0.0000E+00  2.0732E-01  7.9360E-03  4.1268E-01  7.2702E-03  1.9171E-01  4.1553E-01  1.1705E+00  2.1341E-02
 22  1.2597E+00  1.6454E+00  1.6663E+00  1.2517E+00  1.6597E+00  1.2213E+00  1.2544E+00  2.4993E+00  2.0523E+00
 23  0.0000E+00  2.1098E-01  2.9202E-02  9.1188E-01  2.0499E-02  0.0000E+00  0.0000E+00  1.1743E-01  2.0432E-01
 24  0.0000E+00  3.6427E-01  4.9220E-03  9.7929E-01  1.0660E-03  1.4268E-01  1.8447E+00  0.0000E+00  0.0000E+00
 25  0.0000E+00  3.1037E-01  0.0000E+00  0.0000E+00  4.4190E-03  9.3800E-01  7.1105E-01  5.1037E-01  0.0000E+00
 26  0.0000E+00  1.6838E-04  1.8976E-04  0.0000E+00  9.0240E-05  0.0000E+00  0.0000E+00  0.0000E+00  0.0000E+00
 27  0.0000E+00  1.2419E-04  3.1562E-05  0.0000E+00  0.0000E+00  0.0000E+00  5.7543E-05  2.6347E-04  0.0000E+00
 28  0.0000E+00  1.2604E-04  0.0000E+00  0.0000E+00  0.0000E+00  1.1934E-04  0.0000E+00  0.0000E+00  0.0000E+00
 29  0.0000E+00  1.3237E-04  6.1961E-05  0.0000E+00  2.2423E-05  0.0000E+00  0.0000E+00  0.0000E+00  0.0000E+00
 30  0.0000E+00  1.4957E-04  5.0857E-05  0.0000E+00  1.4912E-05  0.0000E+00  2.4345E-04  0.0000E+00  0.0000E+00
 31  0.0000E+00  1.9838E-04  4.5789E-05  0.0000E+00  0.0000E+00  0.0000E+00  0.0000E+00  0.0000E+00  0.0000E+00
 32  0.0000E+00  3.8803E-04  3.6036E-05  0.0000E+00  0.0000E+00  1.0474E-03  0.0000E+00  0.0000E+00  0.0000E+00
 33  0.0000E+00  8.9841E-04  0.0000E+00  0.0000E+00  9.5140E-05  0.0000E+00  3.7113E-03  5.4416E-03  0.0000E+00
 34  0.0000E+00  1.4951E-03  2.0498E-04  0.0000E+00  4.6210E-04  0.0000E+00  0.0000E+00  0.0000E+00  0.0000E+00
 35  1.5611E-02  2.1148E-03  1.3436E-04  0.0000E+00  2.7933E-04  0.0000E+00  5.0560E-04  6.7197E-03  1.2854E-02
 36  2.0984E-01  1.9815E-01  2.0516E-01  1.9730E-01  2.0567E-01  1.9106E-01  2.0109E-01  1.8806E-01  2.0348E-01
 37  4.3274E-01  4.0941E-01  4.1661E-01  4.2155E-01  4.1890E-01  4.2600E-01  4.0389E-01  4.0782E-01  4.0521E-01
 38  0.0000E+00  1.3169E-02  1.9079E-04  0.0000E+00  4.0023E-04  0.0000E+00  2.4296E-02  6.8051E-02  0.0000E+00
 39  0.0000E+00  1.3694E-02  0.0000E+00  0.0000E+00  0.0000E+00  0.0000E+00  4.1140E-03  0.0000E+00  0.0000E+00
 40  0.0000E+00  3.3402E-01  4.3255E-01  1.8352E-01  4.3554E-01  3.4633E-01  5.1071E-02  1.9715E-01  0.0000E+00
 41  0.0000E+00  6.4756E-02  3.2542E-03  4.3710E-01  0.0000E+00  2.1133E-01  1.7012E-01  0.0000E+00  0.0000E+00
 42  5.9540E-01  5.5736E-02  3.1367E-03  0.0000E+00  2.7066E-04  3.7412E-02  0.0000E+00  1.5415E-01  2.6488E-01
 43  7.2244E+01  6.8573E+01  7.1032E+01  6.9199E+01  7.1361E+01  6.9357E+01  6.9024E+01  6.7573E+01  6.9930E+01
 44  2.3618E+01  2.3222E+01  2.3945E+01  2.3220E+01  2.4133E+01  2.3461E+01  2.3035E+01  2.3359E+01  2.3721E+01
 45  2.2824E-01  1.2151E-01  2.2808E-02  0.0000E+00  9.8249E-03  1.6372E-01  8.3135E-02  3.0832E-01  6.1839E-01
 46  0.0000E+00  1.1646E-01  1.8940E-02  0.0000E+00  2.2331E-02  0.0000E+00  0.0000E+00  6.9174E-03  2.1871E-01
 47  0.0000E+00  1.1359E-01  0.0000E+00  0.0000E+00  2.1267E-02  0.0000E+00  0.0000E+00  4.3532E-01  0.0000E+00
 48  0.0000E+00  1.8137E-01  6.7356E-03  0.0000E+00  2.1229E-02  4.9274E-01  0.0000E+00  0.0000E+00  3.2833E-01
 49  0.0000E+00  2.0380E-01  8.0507E-04  0.0000E+00  8.6391E-03  0.0000E+00  3.6246E-01  0.0000E+00  0.0000E+00
 50  0.0000E+00  2.5711E-01  0.0000E+00  2.2357E-01  2.0417E-02  1.3355E+00  3.8321E-01  3.8120E-02  0.0000E+00
 51  0.0000E+00  1.6187E-04  1.3877E-04  0.0000E+00  7.0411E-05  0.0000E+00  0.0000E+00  0.0000E+00  0.0000E+00
 52  0.0000E+00  1.8372E-04  2.7163E-05  0.0000E+00  8.4513E-06  0.0000E+00  2.2156E-04  9.5238E-05  0.0000E+00
 53  0.0000E+00  7.6054E-05  2.8240E-05  0.0000E+00  1.5497E-05  0.0000E+00  0.0000E+00  0.0000E+00  0.0000E+00
 54  0.0000E+00  2.9684E-04  1.4157E-05  0.0000E+00  3.4998E-05  1.1072E-03  3.5040E-04  6.7542E-04  0.0000E+00
 55  0.0000E+00  3.6007E-04  3.5995E-05  9.3332E-04  5.8896E-06  0.0000E+00  0.0000E+00  0.0000E+00  0.0000E+00
 56  0.0000E+00  4.0171E-04  0.0000E+00  0.0000E+00  0.0000E+00  0.0000E+00  0.0000E+00  4.9989E-04  8.5544E-04
 57  0.0000E+00  3.1823E-04  2.1072E-04  2.3147E-04  2.8510E-05  0.0000E+00  0.0000E+00  0.0000E+00  0.0000E+00
 58  0.0000E+00  9.0864E-04  3.4435E-04  0.0000E+00  2.8118E-04  6.1949E-03  0.0000E+00  0.0000E+00  0.0000E+00
 59  0.0000E+00  1.0487E-03  4.5639E-04  0.0000E+00  0.0000E+00  0.0000E+00  0.0000E+00  5.0231E-03  0.0000E+00
 60  0.0000E+00  2.0684E-03  1.1765E-04  0.0000E+00  1.1805E-04  0.0000E+00  5.4158E-04  0.0000E+00  0.0000E+00
 61  0.0000E+00  4.2719E-03  3.4841E-04  5.7855E-03  5.7177E-04  0.0000E+00  1.9866E-04  4.2340E-03  1.2381E-02
 62  0.0000E+00  6.7097E-03  1.0507E-04  0.0000E+00  6.0593E-04  0.0000E+00  4.4591E-02  0.0000E+00  1.3283E-02
 63  0.0000E+00  5.1891E-03  0.0000E+00  0.0000E+00  4.1349E-04  1.1410E-02  1.3454E-03  0.0000E+00  4.7339E-03
 64  0.0000E+00  1.1268E-02  5.3991E-04  0.0000E+00  5.4435E-04  0.0000E+00  0.0000E+00  0.0000E+00  2.9154E-02
 65  0.0000E+00  1.8320E-02  0.0000E+00  0.0000E+00  1.6594E-03  0.0000E+00  6.5205E-02  0.0000E+00  0.0000E+00
 66  0.0000E+00  4.5863E-03  2.3929E-03  0.0000E+00  1.0274E-03  0.0000E+00  0.0000E+00  0.0000E+00  1.3179E-02
 67  0.0000E+00  1.4032E-02  1.3608E-04  0.0000E+00  0.0000E+00  3.6172E-02  0.0000E+00  0.0000E+00  0.0000E+00
 68  0.0000E+00  1.7505E-02  1.7593E-03  0.0000E+00  7.0180E-03  0.0000E+00  5.1665E-02  8.9924E-02  0.0000E+00
 69  0.0000E+00  2.9162E-02  2.1809E-02  0.0000E+00  1.4530E-02  0.0000E+00  4.7948E-02  0.0000E+00  0.0000E+00
 70  0.0000E+00  2.8231E-02  1.9715E-02  1.9758E-01  4.7168E-03  0.0000E+00  0.0000E+00  0.0000E+00  0.0000E+00
 71  0.0000E+00  3.4719E-02  4.4948E-02  0.0000E+00  0.0000E+00  0.0000E+00  0.0000E+00  0.0000E+00  0.0000E+00
 72  0.0000E+00  2.8655E-02  0.0000E+00  0.0000E+00  1.2056E-03  2.7001E-02  0.0000E+00  0.0000E+00  0.0000E+00
 73  0.0000E+00  2.1963E-02  3.0773E-02  0.0000E+00  6.0614E-03  0.0000E+00  0.0000E+00  0.0000E+00  0.0000E+00
 74  0.0000E+00  4.9694E-02  1.9015E-02  0.0000E+00  4.2520E-02  0.0000E+00  8.3109E-02  0.0000E+00  0.0000E+00
 75  0.0000E+00  3.7519E-02  0.0000E+00  0.0000E+00  3.0928E-05  0.0000E+00  0.0000E+00  0.0000E+00  0.0000E+00
 76  0.0000E+00  1.2043E-04  5.6882E-05  0.0000E+00  3.2451E-05  0.0000E+00  0.0000E+00  0.0000E+00  0.0000E+00
 77  0.0000E+00  5.3126E-05  2.8553E-05  0.0000E+00  0.0000E+00  0.0000E+00  0.0000E+00  2.5006E-04  2.8043E-05
 78  0.0000E+00  1.1037E-04  0.0000E+00  4.7856E-04  0.0000E+00  0.0000E+00  0.0000E+00  0.0000E+00  0.0000E+00
 79  0.0000E+00  1.7067E-04  0.0000E+00  0.0000E+00  7.2391E-07  0.0000E+00  0.0000E+00  0.0000E+00  0.0000E+00
 80  0.0000E+00  2.9060E-04  6.2482E-05  0.0000E+00  0.0000E+00  0.0000E+00  2.6193E-04  0.0000E+00  0.0000E+00
 81  0.0000E+00  2.4979E-04  1.2619E-04  6.5091E-04  4.2928E-05  0.0000E+00  0.0000E+00  0.0000E+00  0.0000E+00
 82  0.0000E+00  4.7168E-04  1.0670E-04  0.0000E+00  8.9014E-05  0.0000E+00  0.0000E+00  0.0000E+00  0.0000E+00
 83  0.0000E+00  1.3773E-03  6.6645E-04  4.4658E-03  2.5922E-05  0.0000E+00  0.0000E+00  0.0000E+00  1.5289E-03
 84  0.0000E+00  1.9042E-03  0.0000E+00  0.0000E+00  4.5716E-04  1.7650E-03  2.4085E-03  6.6586E-03  0.0000E+00
 85  0.0000E+00  2.3929E-03  2.0658E-04  0.0000E+00  1.3414E-05  0.0000E+00  0.0000E+00  0.0000E+00  0.0000E+00
 86  0.0000E+00  3.7566E-03  4.3026E-05  1.3149E-02  0.0000E+00  4.3347E-03  0.0000E+00  3.4524E-03  0.0000E+00
 87  0.0000E+00  5.1948E-03  0.0000E+00  0.0000E+00  9.5962E-05  1.4006E-02  0.0000E+00  1.0753E-02  0.0000E+00
 88  0.0000E+00  5.6672E-03  9.8861E-04  0.0000E+00  8.6874E-05  0.0000E+00  0.0000E+00  0.0000E+00  0.0000E+00
 89  0.0000E+00  6.9098E-03  0.0000E+00  5.9389E-03  2.1934E-04  0.0000E+00  0.0000E+00  0.0000E+00  0.0000E+00
 90  0.0000E+00  7.1700E-03  0.0000E+00  3.6303E-05  0.0000E+00  8.2179E-03  0.0000E+00  0.0000E+00  0.0000E+00
 91  0.0000E+00  6.1048E-03  2.2994E-03  0.0000E+00  7.0962E-04  0.0000E+00  0.0000E+00  6.2894E-02  0.0000E+00
 92  0.0000E+00  9.2728E-03  1.5570E-03  0.0000E+00  1.4965E-03  0.0000E+00  0.0000E+00  0.0000E+00  0.0000E+00
 93  0.0000E+00  1.2689E-02  4.7185E-03  0.0000E+00  0.0000E+00  0.0000E+00  0.0000E+00  0.0000E+00  1.8268E-03
 94  0.0000E+00  3.0245E-02  7.4915E-03  1.3941E-02  0.0000E+00  0.0000E+00  0.0000E+00  0.0000E+00  3.4394E-02
 95  0.0000E+00  3.2107E-02  1.2017E-02  0.0000E+00  0.0000E+00  0.0000E+00  0.0000E+00  0.0000E+00  0.0000E+00
 96  0.0000E+00  3.3731E-02  4.1005E-04  0.0000E+00  0.0000E+00  0.0000E+00  0.0000E+00  0.0000E+00  0.0000E+00
 97  0.0000E+00  3.4843E-02  1.1620E-02  0.0000E+00  0.0000E+00  0.0000E+00  0.0000E+00  0.0000E+00  0.0000E+00
 98  0.0000E+00  5.4527E-02  1.8451E-02  0.0000E+00  2.8389E-02  0.0000E+00  3.7264E-02  0.0000E+00  0.0000E+00
 99  0.0000E+00  4.1936E-02  0.0000E+00  0.0000E+00  0.0000E+00  0.0000E+00  0.0000E+00  2.2096E-02  0.0000E+00
100  0.0000E+00  6.2129E-02  9.5393E-02  0.0000E+00  1.2509E-02  0.0000E+00  0.0000E+00  0.0000E+00  0.0000E+00
101  0.0000E+00  6.1310E-05  1.8164E-05  0.0000E+00  0.0000E+00  0.0000E+00  3.6092E-04  0.0000E+00  0.0000E+00
102  0.0000E+00  3.7836E-05  1.4290E-05  0.0000E+00  8.8841E-06  0.0000E+00  0.0000E+00  0.0000E+00  0.0000E+00
103  0.0000E+00  1.7198E-04  4.6684E-06  0.0000E+00  0.0000E+00  0.0000E+00  3.8037E-04  0.0000E+00  0.0000E+00
104  0.0000E+00  2.3902E-04  0.0000E+00  0.0000E+00  4.7342E-05  1.9555E-04  4.8444E-04  0.0000E+00  0.0000E+00
105  0.0000E+00  3.2696E-04  0.0000E+00  0.0000E+00  4.5809E-05  8.2194E-04  5.1710E-05  5.9432E-05  0.0000E+00
106  0.0000E+00  3.6231E-04  9.0948E-06  0.0000E+00  3.7269E-05  0.0000E+00  9.9619E-05  5.0397E-04  2.7533E-03
107  0.0000E+00  5.3061E-04  0.0000E+00  0.0000E+00  0.0000E+00  0.0000E+00  0.0000E+00  0.0000E+00  8.3821E-04
108  0.0000E+00  6.7840E-04  0.0000E+00  0.0000E+00  1.0825E-04  0.0000E+00  0.0000E+00  0.0000E+00  0.0000E+00
109  0.0000E+00  1.4407E-03  4.9086E-04  0.0000E+00  0.0000E+00  0.0000E+00  3.6237E-03  0.0000E+00  0.0000E+00
110  0.0000E+00  1.8192E-03  0.0000E+00  0.0000E+00  1.4927E-04  0.0000E+00  0.0000E+00  0.0000E+00  1.8904E-04
111  0.0000E+00  2.6658E-03  0.0000E+00  2.3571E-03  2.5308E-06  1.7892E-02  3.9658E-03  8.6057E-03  6.0827E-03
112  0.0000E+00  5.5863E-03  5.4015E-04  0.0000E+00  0.0000E+00  8.8182E-03  2.2152E-03  0.0000E+00  5.2865E-03
113  2.0835E-03  8.7347E-03  0.0000E+00  0.0000E+00  0.0000E+00  0.0000E+00  0.0000E+00  1.7226E-02  3.5666E-02
114  0.0000E+00  8.5760E-03  0.0000E+00  0.0000E+00  0.0000E+00  1.2221E-02  3.7417E-02  0.0000E+00  0.0000E+00
115  0.0000E+00  1.7454E-02  2.2958E-03  0.0000E+00  0.0000E+00  8.7587E-03  0.0000E+00  0.0000E+00  0.0000E+00
116  0.0000E+00  1.1690E-02  4.4973E-03  0.0000E+00  3.8611E-03  0.0000E+00  0.0000E+00  0.0000E+00  1.4648E-01
117  0.0000E+00  1.4222E-02  0.0000E+00  0.0000E+00  4.3170E-03  0.0000E+00  0.0000E+00  0.0000E+00  0.0000E+00
118  0.0000E+00  2.2541E-02  0.0000E+00  0.0000E+00  0.0000E+00  0.0000E+00  0.0000E+00  0.0000E+00  0.0000E+00
119  0.0000E+00  3.2580E-02  9.1083E-03  0.0000E+00  6.4751E-03  0.0000E+00  0.0000E+00  0.0000E+00  0.0000E+00
120  0.0000E+00  2.2408E-02  3.3355E-02  0.0000E+00  2.3239E-02  0.0000E+00  0.0000E+00  0.0000E+00  0.0000E+00
121  0.0000E+00  3.3669E-02  2.6342E-02  0.0000E+00  2.4990E-02  0.0000E+00  0.0000E+00  0.0000E+00  0.0000E+00
122  0.0000E+00  3.8633E-02  2.9191E-02  0.0000E+00  5.7636E-03  0.0000E+00  0.0000E+00  0.0000E+00  0.0000E+00
123  0.0000E+00  4.0589E-02  2.5182E-02  0.0000E+00  0.0000E+00  0.0000E+00  0.0000E+00  4.0043E-02  0.0000E+00
124  0.0000E+00  5.9860E-02  0.0000E+00  0.0000E+00  0.0000E+00  2.6179E-02  0.0000E+00  0.0000E+00  0.0000E+00
125  0.0000E+00  6.0848E-02  1.2176E-01  0.0000E+00  7.5616E-02  0.0000E+00  0.0000E+00  0.0000E+00  0.0000E+00
126  0.0000E+00  7.0839E-05  4.8915E-05  2.9039E-04  3.7562E-05  0.0000E+00  5.6055E-04  0.0000E+00  0.0000E+00
127  0.0000E+00  4.9238E-05  1.0089E-05  0.0000E+00  1.0857E-05  0.0000E+00  0.0000E+00  0.0000E+00  0.0000E+00
128  0.0000E+00  7.0308E-05  0.0000E+00  0.0000E+00  0.0000E+00  0.0000E+00  0.0000E+00  0.0000E+00  0.0000E+00
129  0.0000E+00  2.2559E-04  5.3359E-05  2.3922E-03  2.6324E-05  6.0625E-05  8.2794E-04  0.0000E+00  0.0000E+00
130  0.0000E+00  2.8243E-04  0.0000E+00  0.0000E+00  0.0000E+00  0.0000E+00  0.0000E+00  0.0000E+00  0.0000E+00
131  0.0000E+00  1.4267E-04  9.4775E-05  0.0000E+00  0.0000E+00  8.0554E-06  0.0000E+00  0.0000E+00  0.0000E+00
132  0.0000E+00  2.9923E-04  3.1226E-04  0.0000E+00  0.0000E+00  0.0000E+00  0.0000E+00  0.0000E+00  0.0000E+00
133  0.0000E+00  6.6237E-04  0.0000E+00  4.8041E-03  8.2911E-05  0.0000E+00  0.0000E+00  0.0000E+00  0.0000E+00
134  0.0000E+00  1.8950E-03  2.4268E-04  1.2925E-04  1.5326E-04  8.8755E-03  0.0000E+00  0.0000E+00  0.0000E+00
135  3.0082E-02  3.0254E-03  0.0000E+00  0.0000E+00  4.6976E-05  1.4276E-02  1.4402E-02  0.0000E+00  1.7572E-02
136  0.0000E+00  4.7050E-03  4.0890E-04  0.0000E+00  5.2866E-05  1.5673E-03  1.2002E-02  0.0000E+00  1.2741E-02
137  1.6578E-02  6.8144E-03  6.7740E-04  3.7820E-02  4.8547E-04  0.0000E+00  8.2426E-04  0.0000E+00  2.5862E-02
138  0.0000E+00  1.4943E-02  0.0000E+00  2.9063E-03  4.5219E-04  2.4339E-02  2.9551E-02  1.4339E-02  0.0000E+00
139  0.0000E+00  9.9495E-03  2.0116E-03  0.0000E+00  2.0083E-04  0.0000E+00  0.0000E+00  0.0000E+00  6.5054E-03
140  0.0000E+00  9.8874E-03  7.1478E-04  2.4352E-02  3.4763E-03  0.0000E+00  0.0000E+00  0.0000E+00  0.0000E+00
141  0.0000E+00  1.5715E-02  0.0000E+00  4.0568E-03  2.8055E-03  0.0000E+00  0.0000E+00  0.0000E+00  0.0000E+00
142  0.0000E+00  2.1389E-02  0.0000E+00  4.8448E-02  1.8125E-03  0.0000E+00  0.0000E+00  0.0000E+00  0.0000E+00
143  0.0000E+00  2.6061E-02  3.4343E-03  0.0000E+00  1.8488E-04  0.0000E+00  0.0000E+00  0.0000E+00  0.0000E+00
144  0.0000E+00  5.0292E-02  8.5527E-03  0.0000E+00  1.4032E-02  0.0000E+00  2.6537E-01  0.0000E+00  0.0000E+00
145  0.0000E+00  7.5275E-02  1.0553E-01  5.0218E-01  9.2375E-03  0.0000E+00  0.0000E+00  0.0000E+00  0.0000E+00
146  0.0000E+00  1.1399E-01  0.0000E+00  0.0000E+00  1.0293E-02  0.0000E+00  0.0000E+00  0.0000E+00  0.0000E+00
147  0.0000E+00  7.6619E-02  0.0000E+00  0.0000E+00  3.9588E-02  0.0000E+00  0.0000E+00  0.0000E+00  0.0000E+00
148  0.0000E+00  1.1876E-01  1.0333E-01  0.0000E+00  0.0000E+00  0.0000E+00  0.0000E+00  7.9568E-01  0.0000E+00
149  0.0000E+00  9.6558E-02  2.2347E-02  0.0000E+00  7.8815E-02  0.0000E+00  0.0000E+00  0.0000E+00  0.0000E+00
150  0.0000E+00  1.1042E-01  2.4016E-01  0.0000E+00  3.3647E-02  0.0000E+00  0.0000E+00  0.0000E+00  0.0000E+00

# AV, chi2 & Mass for <> & i_chain = 1 ...  7 solutions
AV       0.7505      0.7457      0.7448      0.7458      0.7453      0.7476      0.7458      0.7453      0.7470
chi2 2.6427E+00  2.6918E+00  2.6665E+00  2.6635E+00  2.6607E+00  2.6662E+00  2.6678E+00  2.6690E+00  2.6636E+00
Mass 7.1328E-10  7.3647E-10  7.2196E-10  7.3226E-10  7.1895E-10  7.3187E-10  7.3681E-10  7.3986E-10  7.2537E-10
 -57.63                                  [v0_min (km/s) before EX0s...]
  95.37                                  [vd_min (km/s) before EX0s...]


## Synthetic spectrum (Best Model) ##l_obs f_obs f_syn wei
 3070    [Nl_obs]
 3359.00    0.00000   0.51875   -2.000
 3360.00    0.06202   0.52074   -1.000
 3361.00    0.28549   0.53232   -1.000
 3362.00    0.30063   0.54754   -1.000
 3363.00    0.31659   0.55886   -1.000
 3364.00    0.32920   0.56157   -1.000
 3365.00    0.33428   0.55700   -1.000
 3366.00    0.33999   0.54978   -1.000
 3367.00    0.34684   0.54296   -1.000
 3368.00    0.34642   0.53715   -1.000
 3369.00    0.33569   0.53190   -1.000
 3370.00    0.32721   0.52775   -1.000
 3371.00    0.33024   0.52715   -1.000
 3372.00    0.33938   0.53268   -1.000
 3373.00    0.34832   0.54374   -1.000
 3374.00    0.36334   0.55640   -1.000
 3375.00    0.38447   0.56547   -1.000
 3376.00    0.39570   0.56755   -1.000
 3377.00    0.40565   0.56371   -1.000
 3378.00    0.40280   0.55897   -1.000
 3379.00    0.39684   0.55794   -1.000
 3380.00    0.39700   0.56129   -1.000
 3381.00    0.40183   0.56638   -1.000
 3382.00    0.40826   0.57069   -1.000
 3383.00    0.42049   0.57351   -1.000
 3384.00    0.41798   0.57514   -1.000
 3385.00    0.42224   0.57526   -1.000
 3386.00    0.42584   0.57394   -1.000
 3387.00    0.43701   0.57289   -1.000
 3388.00    0.44308   0.57351   -1.000
 3389.00    0.44890   0.57525   -1.000
 3390.00    0.45456   0.57657   -1.000
 3391.00    0.45180   0.57670   -1.000
 3392.00    0.45055   0.57724   -1.000
 3393.00    0.45661   0.58055   -1.000
 3394.00    0.46158   0.58670   -1.000
 3395.00    0.46585   0.59362   -1.000
 3396.00    0.47496   0.59906   -1.000
 3397.00    0.47426   0.60100   -1.000
 3398.00    0.48595   0.59803   -1.000
 3399.00    0.49021   0.59105   -1.000
 3400.00    0.48739   0.58216   -1.000
 3401.00    0.47926   0.57333   -1.000
 3402.00    0.47663   0.56708   -1.000
 3403.00    0.47900   0.56491   -1.000
 3404.00    0.47622   0.56540   -1.000
 3405.00    0.46542   0.56538   -1.000
 3406.00    0.46606   0.56349   -1.000
 3407.00    0.46917   0.56130   -1.000
 3408.00    0.46056   0.56102   -1.000
 3409.00    0.45878   0.56265   -1.000
 3410.00    0.46883   0.56421   -1.000
 3411.00    0.47304   0.56507   -1.000
 3412.00    0.47849   0.56645   -1.000
 3413.00    0.47365   0.56947   -1.000
 3414.00    0.47431   0.57387   -1.000
 3415.00    0.48524   0.57870   -1.000
 3416.00    0.48987   0.58365   -1.000
 3417.00    0.49071   0.58887   -1.000
 3418.00    0.50214   0.59385   -1.000
 3419.00    0.51209   0.59727   -1.000
 3420.00    0.50344   0.59764   -1.000
 3421.00    0.50293   0.59458   -1.000
 3422.00    0.50354   0.58988   -1.000
 3423.00    0.50484   0.58638   -1.000
 3424.00    0.50108   0.58571   -1.000
 3425.00    0.51112   0.58787   -1.000
 3426.00    0.51831   0.59259   -1.000
 3427.00    0.51427   0.59960   -1.000
 3428.00    0.51791   0.60669   -1.000
 3429.00    0.53194   0.60933   -1.000
 3430.00    0.53412   0.60509   -1.000
 3431.00    0.52561   0.59724   -1.000
 3432.00    0.52308   0.59209   -1.000
 3433.00    0.51402   0.59339   -1.000
 3434.00    0.52253   0.59927   -1.000
 3435.00    0.53407   0.60411   -1.000
 3436.00    0.53138   0.60366   -1.000
 3437.00    0.52251   0.59751   -1.000
 3438.00    0.51981   0.58751   -1.000
 3439.00    0.50686   0.57583   -1.000
 3440.00    0.49841   0.56503   -1.000
 3441.00    0.50095   0.55815   -1.000
 3442.00    0.49897   0.55706   -1.000
 3443.00    0.50039   0.56126   -1.000
 3444.00    0.51680   0.56907   -1.000
 3445.00    0.52187   0.57917   -1.000
 3446.00    0.52250   0.59038   -1.000
 3447.00    0.53409   0.60033   -1.000
 3448.00    0.54045   0.60461   -1.000
 3449.00    0.54741   0.59969   -1.000
 3450.00    0.54305   0.58799   -1.000
 3451.00    0.54166   0.57668   -1.000
 3452.00    0.54090   0.57115   -1.000
 3453.00    0.54061   0.57170   -1.000
 3454.00    0.54469   0.57522   -1.000
 3455.00    0.55294   0.57827   -1.000
 3456.00    0.56296   0.57850   -1.000
 3457.00    0.55924   0.57544   -1.000
 3458.00    0.55467   0.57033   -1.000
 3459.00    0.55289   0.56556   -1.000
 3460.00    0.55260   0.56422  128.381
 3461.00    0.55083   0.56853  129.615
 3462.00    0.55969   0.57615  156.334
 3463.00    0.56860   0.58146   -1.000
 3464.00    0.57040   0.58230   -1.000
 3465.00    0.56544   0.58188   -1.000
 3466.00    0.57441   0.58399   -1.000
 3467.00    0.57786   0.58955   -1.000
 3468.00    0.57630   0.59640   -1.000
 3469.00    0.58969   0.60072   -1.000
 3470.00    0.59195   0.60006   -1.000
 3471.00    0.59172   0.59474   -1.000
 3472.00    0.57906   0.58639   -1.000
 3473.00    0.57318   0.57700   -1.000
 3474.00    0.56313   0.56931   -1.000
 3475.00    0.55414   0.56572   -1.000
 3476.00    0.55925   0.56662  130.026
 3477.00    0.57079   0.57070  133.420
 3478.00    0.57953   0.57663  158.117
 3479.00    0.58909   0.58307   -1.000
 3480.00    0.59493   0.58746   -1.000
 3481.00    0.58784   0.58783 1005.423
 3482.00    0.58623   0.58586 1005.423
 3483.00    0.58449   0.58617 1005.423
 3484.00    0.59143   0.59128 1005.423
 3485.00    0.59363   0.59846   -1.000
 3486.00    0.59591   0.60280   -1.000
 3487.00    0.60012   0.60170 1005.423
 3488.00    0.59348   0.59599 1005.423
 3489.00    0.58051   0.58945   -1.000
 3490.00    0.57293   0.58646   -1.000
 3491.00    0.57169   0.58764   -1.000
 3492.00    0.58220   0.58911   -1.000
 3493.00    0.58590   0.58679 1005.423
 3494.00    0.58679   0.58028   -1.000
 3495.00    0.59392   0.57362   -1.000
 3496.00    0.58820   0.57202   -1.000
 3497.00    0.58290   0.57667   -1.000
 3498.00    0.58597   0.58325   -1.000
 3499.00    0.59506   0.58656   -1.000
 3500.00    0.59766   0.58602   -1.000
 3501.00    0.59544   0.58492   -1.000
 3502.00    0.59515   0.58478   -1.000
 3503.00    0.59525   0.58404   -1.000
 3504.00    0.60361   0.58156   -1.000
 3505.00    0.59556   0.57842   -1.000
 3506.00    0.59818   0.57628   -1.000
 3507.00    0.60429   0.57558   -1.000
 3508.00    0.60388   0.57534   -1.000
 3509.00    0.59861   0.57439   -1.000
 3510.00    0.59247   0.57243   -1.000
 3511.00    0.58699   0.57001   -1.000
 3512.00    0.58610   0.56832   -1.000
 3513.00    0.58549   0.56901   -1.000
 3514.00    0.58301   0.57365   -1.000
 3515.00    0.59310   0.58186   -1.000
 3516.00    0.60662   0.59028   -1.000
 3517.00    0.60635   0.59446   -1.000
 3518.00    0.60309   0.59254   -1.000
 3519.00    0.60125   0.58666   -1.000
 3520.00    0.59469   0.58074   -1.000
 3521.00    0.59082   0.57669   -1.000
 3522.00    0.57962   0.57352   -1.000
 3523.00    0.57356   0.56979   -1.000
 3524.00    0.56922   0.56666  480.653
 3525.00    0.56638   0.56714  128.804
 3526.00    0.56445   0.57255  132.467
 3527.00    0.57234   0.58136  157.050
 3528.00    0.58942   0.59071 1005.423
 3529.00    0.60252   0.59791   -1.000
 3530.00    0.60439   0.60177 1005.423
 3531.00    0.60914   0.60221   -1.000
 3532.00    0.61040   0.59962   -1.000
 3533.00    0.60679   0.59565   -1.000
 3534.00    0.61362   0.59323   -1.000
 3535.00    0.61559   0.59435   -1.000
 3536.00    0.60330   0.59851   -1.000
 3537.00    0.60554   0.60381 1005.423
 3538.00    0.61560   0.60859   -1.000
 3539.00    0.61665   0.61174   -1.000
 3540.00    0.60832   0.61297   -1.000
 3541.00    0.60980   0.61317   -1.000
 3542.00    0.61342   0.61384 1005.423
 3543.00    0.61377   0.61515 1005.423
 3544.00    0.60990   0.61592   -1.000
 3545.00    0.60525   0.61571   -1.000
 3546.00    0.60529   0.61530   -1.000
 3547.00    0.60771   0.61536   -1.000
 3548.00    0.60983   0.61593   -1.000
 3549.00    0.61207   0.61673   -1.000
 3550.00    0.60945   0.61712   -1.000
 3551.00    0.60466   0.61603   -1.000
 3552.00    0.60800   0.61327   -1.000
 3553.00    0.59920   0.61029   -1.000
 3554.00    0.59798   0.60893   -1.000
 3555.00    0.59630   0.61012   -1.000
 3556.00    0.59630   0.61321   -1.000
 3557.00    0.59438   0.61621   -1.000
 3558.00    0.59788   0.61756   -1.000
 3559.00    0.59857   0.61773   -1.000
 3560.00    0.60233   0.61789   -1.000
 3561.00    0.59979   0.61750   -1.000
 3562.00    0.60493   0.61437   -1.000
 3563.00    0.60227   0.60714   -1.000
 3564.00    0.58177   0.59729   -1.000
 3565.00    0.56871   0.58834   -1.000
 3566.00    0.56758   0.58311  130.178
 3567.00    0.57577   0.58131  134.337
 3568.00    0.57340   0.57949  132.860
 3569.00    0.56580   0.57458  133.021
 3570.00    0.56079   0.56740  137.275
 3571.00    0.55736   0.56160  138.568
 3572.00    0.56382   0.55946  133.821
 3573.00    0.57037   0.56083  152.050
 3574.00    0.57583   0.56477   -1.000
 3575.00    0.57835   0.57017   -1.000
 3576.00    0.57665   0.57557 1005.423
 3577.00    0.58401   0.57913   -1.000
 3578.00    0.58352   0.57928   -1.000
 3579.00    0.58238   0.57602   -1.000
 3580.00    0.57316   0.57127  135.325
 3581.00    0.56491   0.56766  145.625
 3582.00    0.56814   0.56600  152.383
 3583.00    0.56694   0.56339  153.238
 3584.00    0.55466   0.55659  154.407
 3585.00    0.54736   0.54726  158.553
 3586.00    0.54237   0.54094  163.306
 3587.00    0.55024   0.54143  163.713
 3588.00    0.56327   0.54816  155.250
 3589.00    0.56588   0.55786  147.100
 3590.00    0.58359   0.56711  138.899
 3591.00    0.58853   0.57398  150.782
 3592.00    0.59033   0.57856   -1.000
 3593.00    0.58741   0.58232   -1.000
 3594.00    0.58408   0.58660 1005.423
 3595.00    0.58761   0.59148   -1.000
 3596.00    0.59065   0.59621   -1.000
 3597.00    0.59951   0.60006 1005.423
 3598.00    0.60689   0.60239   -1.000
 3599.00    0.60479   0.60200  973.112
 3600.00    0.60292   0.59799   -1.000
 3601.00    0.59656   0.59150   -1.000
 3602.00    0.59302   0.58546   -1.000
 3603.00    0.59198   0.58251   -1.000
 3604.00    0.58293   0.58289 1005.423
 3605.00    0.58399   0.58441 1005.423
 3606.00    0.59033   0.58501   -1.000
 3607.00    0.58658   0.58425 1005.423
 3608.00    0.58010   0.58266 1005.423
 3609.00    0.57813   0.58093 1005.423
 3610.00    0.57402   0.57987   -1.000
 3611.00    0.57833   0.58007 1005.423
 3612.00    0.58037   0.58178 1005.423
 3613.00    0.57775   0.58571   -1.000
 3614.00    0.58507   0.59200   -1.000
 3615.00    0.59466   0.59786   -1.000
 3616.00    0.59884   0.59918 1005.423
 3617.00    0.59044   0.59512   -1.000
 3618.00    0.57826   0.58968   -1.000
 3619.00    0.57689   0.58823   -1.000
 3620.00    0.58542   0.59247  148.461
 3621.00    0.59345   0.59961   -1.000
 3622.00    0.59575   0.60595   -1.000
 3623.00    0.59990   0.61085   -1.000
 3624.00    0.59756   0.61655   -1.000
 3625.00    0.60180   0.62406   -1.000
 3626.00    0.61217   0.63049   -1.000
 3627.00    0.61568   0.63098   -1.000
 3628.00    0.60406   0.62324   -1.000
 3629.00    0.59557   0.60998   -1.000
 3630.00    0.58050   0.59730   -1.000
 3631.00    0.57495   0.59099   -1.000
 3632.00    0.58402   0.59301   -1.000
 3633.00    0.59609   0.59994   -1.000
 3634.00    0.60294   0.60588 1005.423
 3635.00    0.61094   0.60832 1005.423
 3636.00    0.61083   0.60969 1005.423
 3637.00    0.61040   0.61254 1005.423
 3638.00    0.61324   0.61572  994.703
 3639.00    0.61374   0.61627  951.778
 3640.00    0.61420   0.61284  924.851
 3641.00    0.60568   0.60638  927.956
 3642.00    0.59800   0.59933  953.004
 3643.00    0.59348   0.59397  988.338
 3644.00    0.59303   0.59112 1005.423
 3645.00    0.59670   0.59028   -1.000
 3646.00    0.59521   0.59080   -1.000
 3647.00    0.59308   0.59222 1005.423
 3648.00    0.59462   0.59404 1005.423
 3649.00    0.59811   0.59614 1005.423
 3650.00    0.59931   0.59918 1005.423
 3651.00    0.60939   0.60391   -1.000
 3652.00    0.61730   0.61008   -1.000
 3653.00    0.61975   0.61659   -1.000
 3654.00    0.62231   0.62246  926.573
 3655.00    0.62648   0.62693  915.342
 3656.00    0.62932   0.62945  911.247
 3657.00    0.63119   0.62974  900.721
 3658.00    0.62790   0.62784  890.481
 3659.00    0.62318   0.62422  877.595
 3660.00    0.61994   0.62000  878.681
 3661.00    0.61896   0.61665  880.061
 3662.00    0.61970   0.61520   -1.000
 3663.00    0.62898   0.61558   -1.000
 3664.00    0.62491   0.61672   -1.000
 3665.00    0.62882   0.61750   -1.000
 3666.00    0.62565   0.61748   -1.000
 3667.00    0.62143   0.61700   -1.000
 3668.00    0.62145   0.61675   -1.000
 3669.00    0.61732   0.61732  942.854
 3670.00    0.61933   0.61926  962.103
 3671.00    0.62351   0.62240  950.694
 3672.00    0.62737   0.62503  916.890
 3673.00    0.62799   0.62506  901.038
 3674.00    0.63089   0.62175   -1.000
 3675.00    0.63137   0.61578   -1.000
 3676.00    0.62933   0.60899   -1.000
 3677.00    0.61721   0.60409   -1.000
 3678.00    0.61022   0.60332   -1.000
 3679.00    0.61196   0.60657   -1.000
 3680.00    0.61266   0.61111 1005.423
 3681.00    0.61587   0.61370 1004.877
 3682.00    0.61556   0.61276  977.671
 3683.00    0.61601   0.60871   -1.000
 3684.00    0.61301   0.60327   -1.000
 3685.00    0.60543   0.59981   -1.000
 3686.00    0.60188   0.60286 1005.423
 3687.00    0.61044   0.61396   -1.000
 3688.00    0.62571   0.62822 1005.423
 3689.00    0.63393   0.63801   -1.000
 3690.00    0.63292   0.64099   -1.000
 3691.00    0.63484   0.64175   -1.000
 3692.00    0.64333   0.64494  878.336
 3693.00    0.64854   0.64931  888.173
 3694.00    0.64768   0.64991  911.502
 3695.00    0.64080   0.64521   -1.000
 3696.00    0.63026   0.64098   -1.000
 3697.00    0.63013   0.64589   -1.000
 3698.00    0.65174   0.66172   -1.000
 3699.00    0.67440   0.67886   -1.000
 3700.00    0.68321   0.68294  844.611
 3701.00    0.66926   0.66688  837.400
 3702.00    0.64084   0.63711  857.119
 3703.00    0.61623   0.60886   -1.000
 3704.00    0.60624   0.59582   -1.000
 3705.00    0.61893   0.60194   -1.000
 3706.00    0.63197   0.61980   -1.000
 3707.00    0.64888   0.63557   -1.000
 3708.00    0.65684   0.63810   -1.000
 3709.00    0.64076   0.62657   -1.000
 3710.00    0.61780   0.61058   -1.000
 3711.00    0.60615   0.60350   -1.000
 3712.00    0.62736   0.61458   -1.000
 3713.00    0.66258   0.64320   -1.000
 3714.00    0.69818   0.67913   -1.000
 3715.00    0.71424   0.70965   -1.000
 3716.00    0.72531   0.72513  830.928
 3717.00    0.71867   0.71870  855.571
 3718.00    0.68275   0.68801   -1.000
 3719.00    0.63073   0.64113   -1.000
 3720.00    0.58799   0.59608   -1.000
 3721.00    0.56954   0.57149  577.439
 3722.00    0.58540   0.57806  147.846
 3723.00    0.62901   0.61350   -1.000
 3724.00    0.67634   0.66142   -1.000
 3725.00    0.71331   0.70214   -1.000
 3726.00    0.72315   0.72739   -1.000
 3727.00    0.72989   0.74040   -1.000
 3728.00    0.73457   0.74457   -1.000
 3729.00    0.72688   0.73653   -1.000
 3730.00    0.71062   0.70988  954.825
 3731.00    0.67308   0.66441   -1.000
 3732.00    0.61005   0.61088 1005.423
 3733.00    0.55898   0.56645   -1.000
 3734.00    0.54149   0.54654  129.415
 3735.00    0.56029   0.55797  143.749
 3736.00    0.60115   0.59613  147.283
 3737.00    0.65739   0.64890  138.856
 3738.00    0.70792   0.70250  144.314
 3739.00    0.74321   0.74450 1005.423
 3740.00    0.76162   0.76756   -1.000
 3741.00    0.76200   0.77230   -1.000
 3742.00    0.75704   0.76431   -1.000
 3743.00    0.74287   0.74790   -1.000
 3744.00    0.71777   0.72342   -1.000
 3745.00    0.69111   0.68984 1005.423
 3746.00    0.66416   0.64824   -1.000
 3747.00    0.62837   0.60349   -1.000
 3748.00    0.57402   0.56552  130.395
 3749.00    0.54497   0.54836  137.992
 3750.00    0.56411   0.56191  157.248
 3751.00    0.62161   0.60324   -1.000
 3752.00    0.67494   0.65809   -1.000
 3753.00    0.72549   0.71007   -1.000
 3754.00    0.75742   0.74796   -1.000
 3755.00    0.77770   0.76646   -1.000
 3756.00    0.77312   0.76530   -1.000
 3757.00    0.76281   0.75117   -1.000
 3758.00    0.74880   0.73597   -1.000
 3759.00    0.74911   0.72937   -1.000
 3760.00    0.76982   0.73382   -1.000
 3761.00    0.78096   0.74517   -1.000
 3762.00    0.78364   0.75572   -1.000
 3763.00    0.78297   0.75847   -1.000
 3764.00    0.77011   0.74996   -1.000
 3765.00    0.75170   0.72962   -1.000
 3766.00    0.72319   0.69803   -1.000
 3767.00    0.68838   0.65768   -1.000
 3768.00    0.65050   0.61560   -1.000
 3769.00    0.60256   0.58399   -1.000
 3770.00    0.58313   0.57581   -1.000
 3771.00    0.61378   0.59554   -1.000
 3772.00    0.66857   0.63426   -1.000
 3773.00    0.71482   0.67695   -1.000
 3774.00    0.74482   0.71435   -1.000
 3775.00    0.76448   0.74644   -1.000
 3776.00    0.79450   0.77699   -1.000
 3777.00    0.81552   0.80721   -1.000
 3778.00    0.83842   0.83481   -1.000
 3779.00    0.85785   0.85699  862.505
 3780.00    0.86678   0.87166   -1.000
 3781.00    0.86767   0.87800   -1.000
 3782.00    0.86363   0.87747   -1.000
 3783.00    0.85865   0.87244   -1.000
 3784.00    0.85445   0.86327   -1.000
 3785.00    0.84920   0.84934  832.141
 3786.00    0.83846   0.83300   -1.000
 3787.00    0.82618   0.81957   -1.000
 3788.00    0.82104   0.81225   -1.000
 3789.00    0.81922   0.80872   -1.000
 3790.00    0.81935   0.80307   -1.000
 3791.00    0.80317   0.78940   -1.000
 3792.00    0.77891   0.76381   -1.000
 3793.00    0.74827   0.72514   -1.000
 3794.00    0.70242   0.67606   -1.000
 3795.00    0.65321   0.62364   -1.000
 3796.00    0.60238   0.57880   -1.000
 3797.00    0.56255   0.55550   -1.000
 3798.00    0.57478   0.56516   -1.000
 3799.00    0.63340   0.60759   -1.000
 3800.00    0.69604   0.66886   -1.000
 3801.00    0.74663   0.73023   -1.000
 3802.00    0.78824   0.77899   -1.000
 3803.00    0.81336   0.81143  920.650
 3804.00    0.82352   0.82964   -1.000
 3805.00    0.82738   0.83941   -1.000
 3806.00    0.84012   0.84843   -1.000
 3807.00    0.85259   0.86191   -1.000
 3808.00    0.86988   0.87902   -1.000
 3809.00    0.88221   0.89307   -1.000
 3810.00    0.88760   0.89561   -1.000
 3811.00    0.87987   0.88296  895.381
 3812.00    0.87111   0.86080   -1.000
 3813.00    0.86091   0.84123   -1.000
 3814.00    0.85631   0.83390   -1.000
 3815.00    0.85782   0.83945   -1.000
 3816.00    0.87298   0.85007   -1.000
 3817.00    0.87825   0.85561   -1.000
 3818.00    0.87790   0.85110   -1.000
 3819.00    0.86359   0.84067   -1.000
 3820.00    0.84552   0.83317   -1.000
 3821.00    0.85295   0.83175   -1.000
 3822.00    0.85818   0.82945   -1.000
 3823.00    0.85163   0.81824   -1.000
 3824.00    0.82405   0.79978   -1.000
 3825.00    0.80064   0.78211   -1.000
 3826.00    0.79708   0.76938   -1.000
 3827.00    0.79027   0.75918   -1.000
 3828.00    0.78427   0.74671   -1.000
 3829.00    0.77177   0.72751   -1.000
 3830.00    0.75287   0.69737   -1.000
 3831.00    0.70671   0.65434   -1.000
 3832.00    0.65375   0.60279   -1.000
 3833.00    0.60762   0.55468   -1.000
 3834.00    0.56098   0.52427   -1.000
 3835.00    0.55441   0.52051   -1.000
 3836.00    0.59188   0.54320   -1.000
 3837.00    0.64682   0.58382   -1.000
 3838.00    0.69146   0.63101   -1.000
 3839.00    0.72549   0.67736   -1.000
 3840.00    0.75928   0.72085   -1.000
 3841.00    0.79109   0.76128   -1.000
 3842.00    0.82301   0.79760   -1.000
 3843.00    0.84864   0.82798   -1.000
 3844.00    0.86671   0.85122   -1.000
 3845.00    0.88079   0.86759   -1.000
 3846.00    0.88568   0.87779   -1.000
 3847.00    0.88861   0.88225   -1.000
 3848.00    0.88911   0.88271   -1.000
 3849.00    0.88935   0.88382   -1.000
 3850.00    0.89007   0.89024 1005.423
 3851.00    0.90264   0.90146 1005.423
 3852.00    0.91979   0.91177   -1.000
 3853.00    0.92039   0.91559   -1.000
 3854.00    0.90947   0.91184 1005.423
 3855.00    0.90484   0.90415 1005.423
 3856.00    0.90499   0.89721   -1.000
 3857.00    0.89548   0.89335 1005.423
 3858.00    0.88273   0.89318   -1.000
 3859.00    0.87742   0.89736  127.440
 3860.00    0.89491   0.90489  134.408
 3861.00    0.92307   0.91216  144.808
 3862.00    0.94431   0.91619   -1.000
 3863.00    0.94237   0.91711   -1.000
 3864.00    0.93043   0.91697   -1.000
 3865.00    0.93138   0.91843   -1.000
 3866.00    0.93238   0.92307   -1.000
 3867.00    0.93461   0.92871   -1.000
 3868.00    0.93412   0.92965   -1.000
 3869.00    0.92206   0.92119 1005.423
 3870.00    0.90289   0.90390 1005.423
 3871.00    0.88294   0.88448  665.359
 3872.00    0.86497   0.87201  141.000
 3873.00    0.87202   0.87061 1005.423
 3874.00    0.88500   0.87494   -1.000
 3875.00    0.88641   0.87469   -1.000
 3876.00    0.87108   0.86484   -1.000
 3877.00    0.84714   0.85041 1005.423
 3878.00    0.83758   0.83977 1005.423
 3879.00    0.83552   0.83452 1005.423
 3880.00    0.82823   0.82848 1005.423
 3881.00    0.81994   0.81556   -1.000
 3882.00    0.80506   0.79425   -1.000
 3883.00    0.78903   0.76410   -1.000
 3884.00    0.76546   0.72307   -1.000
 3885.00    0.71810   0.67136   -1.000
 3886.00    0.66011   0.61639   -1.000
 3887.00    0.60120   0.57238   -1.000
 3888.00    0.56713   0.55408   -1.000
 3889.00    0.58935   0.56900   -1.000
 3890.00    0.65490   0.61196   -1.000
 3891.00    0.71621   0.66668   -1.000
 3892.00    0.76017   0.71606   -1.000
 3893.00    0.78331   0.75213   -1.000
 3894.00    0.79853   0.77679   -1.000
 3895.00    0.80600   0.79573   -1.000
 3896.00    0.82913   0.81169   -1.000
 3897.00    0.84303   0.82343   -1.000
 3898.00    0.84828   0.83102   -1.000
 3899.00    0.84927   0.83890   -1.000
 3900.00    0.85743   0.85101   -1.000
 3901.00    0.87723   0.86534   -1.000
 3902.00    0.88471   0.87647   -1.000
 3903.00    0.89023   0.88165   -1.000
 3904.00    0.88281   0.88337  885.783
 3905.00    0.87382   0.88781   -1.000
 3906.00    0.89160   0.90071   -1.000
 3907.00    0.91425   0.92189   -1.000
 3908.00    0.93211   0.94417   -1.000
 3909.00    0.93636   0.95892   -1.000
 3910.00    0.94543   0.96161   -1.000
 3911.00    0.93836   0.95294   -1.000
 3912.00    0.93073   0.93823   -1.000
 3913.00    0.93115   0.92553   -1.000
 3914.00    0.93072   0.92060   -1.000
 3915.00    0.93728   0.92269   -1.000
 3916.00    0.93486   0.92656   -1.000
 3917.00    0.93169   0.92794   -1.000
 3918.00    0.92756   0.92627  840.518
 3919.00    0.91803   0.92365   -1.000
 3920.00    0.92523   0.92194   -1.000
 3921.00    0.92189   0.92125  947.180
 3922.00    0.91639   0.92076   -1.000
 3923.00    0.92667   0.91885   -1.000
 3924.00    0.93849   0.91229   -1.000
 3925.00    0.92485   0.89756   -1.000
 3926.00    0.90216   0.87321   -1.000
 3927.00    0.87756   0.83994   -1.000
 3928.00    0.84509   0.79826   -1.000
 3929.00    0.79944   0.74667   -1.000
 3930.00    0.73601   0.68377   -1.000
 3931.00    0.64280   0.61561   -1.000
 3932.00    0.53001   0.56063   -1.000
 3933.00    0.45316   0.54153   -1.000
 3934.00    0.48509   0.56734   -1.000
 3935.00    0.59806   0.62597   -1.000
 3936.00    0.71887   0.69605   -1.000
 3937.00    0.81798   0.76140   -1.000
 3938.00    0.87055   0.81460   -1.000
 3939.00    0.89233   0.85363   -1.000
 3940.00    0.90601   0.87882   -1.000
 3941.00    0.90758   0.89256   -1.000
 3942.00    0.90503   0.89917   -1.000
 3943.00    0.89914   0.90318   -1.000
 3944.00    0.90825   0.90752 1005.423
 3945.00    0.92802   0.91249   -1.000
 3946.00    0.93488   0.91581   -1.000
 3947.00    0.93323   0.91497   -1.000
 3948.00    0.92675   0.91016   -1.000
 3949.00    0.92733   0.90434   -1.000
 3950.00    0.92716   0.90061   -1.000
 3951.00    0.92287   0.90058   -1.000
 3952.00    0.92127   0.90365   -1.000
 3953.00    0.92028   0.90642   -1.000
 3954.00    0.92297   0.90457   -1.000
 3955.00    0.91445   0.89692   -1.000
 3956.00    0.90224   0.88676   -1.000
 3957.00    0.89586   0.87782   -1.000
 3958.00    0.89332   0.86902   -1.000
 3959.00    0.87994   0.85511   -1.000
 3960.00    0.85369   0.83210   -1.000
 3961.00    0.82399   0.80030   -1.000
 3962.00    0.80454   0.76140   -1.000
 3963.00    0.78014   0.71393   -1.000
 3964.00    0.73762   0.65354   -1.000
 3965.00    0.65615   0.57828   -1.000
 3966.00    0.54854   0.49503   -1.000
 3967.00    0.43054   0.42170  196.114
 3968.00    0.35349   0.37995   -1.000
 3969.00    0.36414   0.38282   -1.000
 3970.00    0.45127   0.42775   -1.000
 3971.00    0.56779   0.49918   -1.000
 3972.00    0.66960   0.57827   -1.000
 3973.00    0.73912   0.65201   -1.000
 3974.00    0.78383   0.71493   -1.000
 3975.00    0.82345   0.76586   -1.000
 3976.00    0.84987   0.80561   -1.000
 3977.00    0.86403   0.83608   -1.000
 3978.00    0.88230   0.85874   -1.000
 3979.00    0.90136   0.87361   -1.000
 3980.00    0.91131   0.88149   -1.000
 3981.00    0.90657   0.88655   -1.000
 3982.00    0.91071   0.89451   -1.000
 3983.00    0.92236   0.90732   -1.000
 3984.00    0.93669   0.92122   -1.000
 3985.00    0.94402   0.93148   -1.000
 3986.00    0.94980   0.93794   -1.000
 3987.00    0.94834   0.94374   -1.000
 3988.00    0.95440   0.95058   -1.000
 3989.00    0.96802   0.95826   -1.000
 3990.00    0.96876   0.96672  677.636
 3991.00    0.97645   0.97557  672.258
 3992.00    0.98368   0.98260  656.251
 3993.00    0.97815   0.98427   -1.000
 3994.00    0.96697   0.97879   -1.000
 3995.00    0.96656   0.96873  666.975
 3996.00    0.96308   0.96000  682.130
 3997.00    0.96389   0.95752   -1.000
 3998.00    0.96431   0.96161  698.633
 3999.00    0.97737   0.96847   -1.000
 4000.00    0.99130   0.97368   -1.000
 4001.00    0.99350   0.97507   -1.000
 4002.00    0.99969   0.97297   -1.000
 4003.00    0.98846   0.96905   -1.000
 4004.00    0.98105   0.96628   -1.000
 4005.00    0.97427   0.96846   -1.000
 4006.00    0.98277   0.97690   -1.000
 4007.00    0.99185   0.98825  692.030
 4008.00    0.99744   0.99724  651.782
 4009.00    0.99991   1.00082  627.570
 4010.00    0.98496   0.99944   -1.000
 4011.00    0.99956   0.99597  613.541
 4012.00    0.99370   0.99425  612.080
 4013.00    0.99298   0.99681  616.618
 4014.00    0.99745   1.00337   -1.000
 4015.00    0.99727   1.01182   -1.000
 4016.00    1.00207   1.02013   -1.000
 4017.00    1.00668   1.02720   -1.000
 4018.00    1.00918   1.03206   -1.000
 4019.00    1.00690   1.03303   -1.000
 4020.00    0.99880   1.02839   -1.000
 4021.00    0.99826   1.01819   -1.000
 4022.00    1.00335   1.00507  617.430
 4023.00    1.00000   0.99398   -1.000
 4024.00    0.99839   0.99005   -1.000
 4025.00    1.00301   0.99428   -1.000
 4026.00    1.00453   1.00156  611.871
 4027.00    1.00787   1.00522  590.397
 4028.00    1.00451   1.00305  579.854
 4029.00    0.98995   0.99759   -1.000
 4030.00    0.98439   0.99293   -1.000
 4031.00    0.98274   0.99196   -1.000
 4032.00    0.97442   0.99541   -1.000
 4033.00    0.98026   1.00260   -1.000
 4034.00    0.98736   1.01266   -1.000
 4035.00    0.99864   1.02474   -1.000
 4036.00    1.00934   1.03683   -1.000
 4037.00    1.01367   1.04553   -1.000
 4038.00    1.01149   1.04845   -1.000
 4039.00    1.00272   1.04634   -1.000
 4040.00    1.00202   1.04158   -1.000
 4041.00    1.00291   1.03502   -1.000
 4042.00    1.00006   1.02525   -1.000
 4043.00    0.99473   1.01182   -1.000
 4044.00    0.97464   0.99883   -1.000
 4045.00    0.95347   0.99350   -1.000
 4046.00    0.97211   0.99938   -1.000
 4047.00    0.99371   1.01208   -1.000
 4048.00    1.00257   1.02380   -1.000
 4049.00    1.01092   1.03014   -1.000
 4050.00    1.00665   1.03081   -1.000
 4051.00    1.00897   1.02720   -1.000
 4052.00    1.00622   1.02188   -1.000
 4053.00    0.99583   1.01827   -1.000
 4054.00    0.99765   1.01866   -1.000
 4055.00    1.00245   1.02260   -1.000
 4056.00    0.99890   1.02832   -1.000
 4057.00    0.99740   1.03407   -1.000
 4058.00    1.00208   1.03720   -1.000
 4059.00    1.00601   1.03431   -1.000
 4060.00    1.00155   1.02473   -1.000
 4061.00    0.98894   1.01139   -1.000
 4062.00    0.96728   0.99785   -1.000
 4063.00    0.96901   0.98706   -1.000
 4064.00    0.97377   0.98174   -1.000
 4065.00    0.98060   0.98254  693.734
 4066.00    0.98675   0.98669  659.667
 4067.00    0.98772   0.99013  644.003
 4068.00    0.99057   0.98963  626.304
 4069.00    0.98961   0.98387   -1.000
 4070.00    0.97856   0.97511  600.973
 4071.00    0.97152   0.96856  626.098
 4072.00    0.97275   0.96721   -1.000
 4073.00    0.98077   0.96772   -1.000
 4074.00    0.98035   0.96331   -1.000
 4075.00    0.96656   0.95160   -1.000
 4076.00    0.95553   0.93889   -1.000
 4077.00    0.94689   0.93524   -1.000
 4078.00    0.95168   0.94475   -1.000
 4079.00    0.96578   0.96164   -1.000
 4080.00    0.97098   0.97594  651.619
 4081.00    0.97637   0.98164   -1.000
 4082.00    0.96772   0.97900   -1.000
 4083.00    0.96626   0.97178   -1.000
 4084.00    0.95162   0.96454   -1.000
 4085.00    0.95005   0.96092   -1.000
 4086.00    0.95605   0.96212   -1.000
 4087.00    0.95957   0.96616   -1.000
 4088.00    0.95340   0.96923   -1.000
 4089.00    0.95150   0.96839   -1.000
 4090.00    0.93968   0.96293   -1.000
 4091.00    0.93262   0.95306   -1.000
 4092.00    0.91960   0.93883   -1.000
 4093.00    0.90917   0.92042   -1.000
 4094.00    0.89603   0.89772  592.495
 4095.00    0.88042   0.86968   -1.000
 4096.00    0.85311   0.83442   -1.000
 4097.00    0.82796   0.79016   -1.000
 4098.00    0.78363   0.73691   -1.000
 4099.00    0.72259   0.68025   -1.000
 4100.00    0.64333   0.63432   -1.000
 4101.00    0.60469   0.61717   -1.000
 4102.00    0.64103   0.63828   -1.000
 4103.00    0.72162   0.68985   -1.000
 4104.00    0.78719   0.75178   -1.000
 4105.00    0.82387   0.80546   -1.000
 4106.00    0.85415   0.84310   -1.000
 4107.00    0.87286   0.86672   -1.000
 4108.00    0.88314   0.88221  621.987
 4109.00    0.89366   0.89523  628.546
 4110.00    0.90716   0.90956  640.988
 4111.00    0.92329   0.92634  649.564
 4112.00    0.94004   0.94436  640.561
 4113.00    0.95215   0.96124   -1.000
 4114.00    0.95777   0.97426   -1.000
 4115.00    0.95950   0.98103   -1.000
 4116.00    0.95484   0.98097   -1.000
 4117.00    0.95632   0.97646   -1.000
 4118.00    0.95305   0.97170   -1.000
 4119.00    0.95370   0.96953   -1.000
 4120.00    0.95542   0.96979   -1.000
 4121.00    0.95897   0.97147   -1.000
 4122.00    0.96839   0.97520   -1.000
 4123.00    0.97748   0.98158  630.857
 4124.00    0.98032   0.98799   -1.000
 4125.00    0.98423   0.98991   -1.000
 4126.00    0.98249   0.98562  611.408
 4127.00    0.98233   0.97830  620.263
 4128.00    0.98169   0.97262   -1.000
 4129.00    0.97502   0.97037   -1.000
 4130.00    0.96915   0.97056  641.773
 4131.00    0.96408   0.97308   -1.000
 4132.00    0.95813   0.97964   -1.000
 4133.00    0.96424   0.99078   -1.000
 4134.00    0.97118   1.00425   -1.000
 4135.00    0.97709   1.01709   -1.000
 4136.00    0.99127   1.02794   -1.000
 4137.00    1.00026   1.03663   -1.000
 4138.00    0.99907   1.04235   -1.000
 4139.00    1.00160   1.04283   -1.000
 4140.00    0.99588   1.03602   -1.000
 4141.00    0.98023   1.02301   -1.000
 4142.00    0.96387   1.00945   -1.000
 4143.00    0.95526   1.00275   -1.000
 4144.00    0.96984   1.00605   -1.000
 4145.00    0.98850   1.01532   -1.000
 4146.00    0.99421   1.02338   -1.000
 4147.00    0.99374   1.02634   -1.000
 4148.00    0.98660   1.02574   -1.000
 4149.00    0.98826   1.02513   -1.000
 4150.00    0.99083   1.02573   -1.000
 4151.00    0.99384   1.02590   -1.000
 4152.00    0.99046   1.02394   -1.000
 4153.00    0.97482   1.02059   -1.000
 4154.00    1.05169   1.01835   -1.000
 4155.00    1.13794   1.01933   -1.000
 4156.00    0.95202   1.02372   -1.000
 4157.00    0.86028   1.02950   -1.000
 4158.00    0.96111   1.03346   -1.000
 4159.00    1.00630   1.03347   -1.000
 4160.00    1.00293   1.03042   -1.000
 4161.00    1.00741   1.02769   -1.000
 4162.00    1.00121   1.02846   -1.000
 4163.00    0.99561   1.03343   -1.000
 4164.00    0.99502   1.04015   -1.000
 4165.00    1.00129   1.04489   -1.000
 4166.00    0.99730   1.04572   -1.000
 4167.00    0.99446   1.04285   -1.000
 4168.00    0.99813   1.03580   -1.000
 4169.00    1.00292   1.02256   -1.000
 4170.00    0.99085   1.00322   -1.000
 4171.00    0.98108   0.98343  647.550
 4172.00    0.97284   0.97183  687.760
 4173.00    0.96504   0.97310   -1.000
 4174.00    0.97242   0.98289   -1.000
 4175.00    0.98078   0.99111   -1.000
 4176.00    0.98018   0.99182   -1.000
 4177.00    0.97664   0.98884   -1.000
 4178.00    0.98289   0.99019   -1.000
 4179.00    0.99045   0.99827   -1.000
 4180.00    0.99562   1.00814   -1.000
 4181.00    0.99221   1.01450   -1.000
 4182.00    0.99155   1.01693   -1.000
 4183.00    0.98651   1.01778   -1.000
 4184.00    0.98802   1.01787   -1.000
 4185.00    0.98619   1.01643   -1.000
 4186.00    0.97712   1.01389   -1.000
 4187.00    0.97336   1.01241   -1.000
 4188.00    0.97921   1.01293   -1.000
 4189.00    0.98528   1.01431   -1.000
 4190.00    0.98834   1.01581   -1.000
 4191.00    0.99231   1.01806   -1.000
 4192.00    0.99246   1.02075   -1.000
 4193.00    1.00002   1.02117   -1.000
 4194.00    0.99652   1.01645   -1.000
 4195.00    0.99355   1.00645   -1.000
 4196.00    0.98898   0.99403   -1.000
 4197.00    0.97001   0.98313   -1.000
 4198.00    0.97074   0.97669   -1.000
 4199.00    0.97480   0.97492  702.062
 4200.00    0.97129   0.97586  693.873
 4201.00    0.97572   0.97794  682.767
 4202.00    0.98031   0.98112  681.268
 4203.00    0.98502   0.98566  676.584
 4204.00    0.97909   0.99144   -1.000
 4205.00    0.97700   0.99808   -1.000
 4206.00    0.98596   1.00442   -1.000
 4207.00    0.99352   1.00880   -1.000
 4208.00    0.99610   1.01104   -1.000
 4209.00    0.99297   1.01279   -1.000
 4210.00    0.98480   1.01520   -1.000
 4211.00    0.98962   1.01691   -1.000
 4212.00    0.99343   1.01481   -1.000
 4213.00    0.98823   1.00735   -1.000
 4214.00    0.97607   0.99776   -1.000
 4215.00    0.96386   0.99252   -1.000
 4216.00    0.96327   0.99572   -1.000
 4217.00    0.97652   1.00528   -1.000
 4218.00    0.98914   1.01568   -1.000
 4219.00    0.99334   1.02267   -1.000
 4220.00    1.00208   1.02430   -1.000
 4221.00    0.99553   1.01936   -1.000
 4222.00    0.98946   1.00720   -1.000
 4223.00    0.98148   0.98911   -1.000
 4224.00    0.96384   0.96958   -1.000
 4225.00    0.94037   0.95601   -1.000
 4226.00    0.92549   0.95596   -1.000
 4227.00    0.93855   0.97134   -1.000
 4228.00    0.96727   0.99448   -1.000
 4229.00    0.98702   1.01218   -1.000
 4230.00    0.98828   1.01569   -1.000
 4231.00    0.98159   1.00673   -1.000
 4232.00    0.97372   0.99444   -1.000
 4233.00    0.97079   0.98730   -1.000
 4234.00    0.97175   0.98777   -1.000
 4235.00    0.97172   0.99319   -1.000
 4236.00    0.97039   1.00030   -1.000
 4237.00    0.96975   1.00761   -1.000
 4238.00    0.98173   1.01455   -1.000
 4239.00    0.99110   1.02034   -1.000
 4240.00    0.99165   1.02428   -1.000
 4241.00    0.99135   1.02641   -1.000
 4242.00    0.99321   1.02671   -1.000
 4243.00    0.98774   1.02392   -1.000
 4244.00    0.98726   1.01659   -1.000
 4245.00    0.97919   1.00596   -1.000
 4246.00    0.96601   0.99635   -1.000
 4247.00    0.96305   0.99126   -1.000
 4248.00    0.96035   0.99052   -1.000
 4249.00    0.95444   0.99226   -1.000
 4250.00    0.95394   0.99587   -1.000
 4251.00    0.97305   1.00125   -1.000
 4252.00    0.97247   1.00709   -1.000
 4253.00    0.97449   1.01187   -1.000
 4254.00    0.96734   1.01506   -1.000
 4255.00    0.97666   1.01620   -1.000
 4256.00    0.98184   1.01438   -1.000
 4257.00    0.98341   1.00961   -1.000
 4258.00    0.97475   1.00400   -1.000
 4259.00    0.96970   1.00109   -1.000
 4260.00    0.96268   1.00397   -1.000
 4261.00    0.96898   1.01321   -1.000
 4262.00    0.98435   1.02566   -1.000
 4263.00    0.99461   1.03617   -1.000
 4264.00    0.99571   1.04121   -1.000
 4265.00    0.99421   1.04045   -1.000
 4266.00    0.99182   1.03515   -1.000
 4267.00    0.98686   1.02609   -1.000
 4268.00    0.97663   1.01332   -1.000
 4269.00    0.96468   0.99778   -1.000
 4270.00    0.94864   0.98293   -1.000
 4271.00    0.93691   0.97367   -1.000
 4272.00    0.94200   0.97300   -1.000
 4273.00    0.95152   0.98023   -1.000
 4274.00    0.95953   0.99251   -1.000
 4275.00    0.96683   1.00666   -1.000
 4276.00    0.97846   1.01934   -1.000
 4277.00    0.98321   1.02755   -1.000
 4278.00    0.98054   1.02972   -1.000
 4279.00    0.97056   1.02653   -1.000
 4280.00    0.96491   1.02036   -1.000
 4281.00    0.96156   1.01433   -1.000
 4282.00    0.96171   1.01076   -1.000
 4283.00    0.96556   1.00932   -1.000
 4284.00    0.96459   1.00672   -1.000
 4285.00    0.96385   0.99922   -1.000
 4286.00    0.95910   0.98575   -1.000
 4287.00    0.95170   0.96900   -1.000
 4288.00    0.93493   0.95442   -1.000
 4289.00    0.92261   0.94767   -1.000
 4290.00    0.92105   0.95017   -1.000
 4291.00    0.93262   0.95666   -1.000
 4292.00    0.94221   0.95999   -1.000
 4293.00    0.94968   0.95841   -1.000
 4294.00    0.94203   0.95531   -1.000
 4295.00    0.94183   0.95257   -1.000
 4296.00    0.93769   0.94726   -1.000
 4297.00    0.92527   0.93538   -1.000
 4298.00    0.90369   0.91741   -1.000
 4299.00    0.89445   0.89912   -1.000
 4300.00    0.88540   0.88742  839.855
 4301.00    0.88784   0.88618  847.656
 4302.00    0.89646   0.89473  820.541
 4303.00    0.89853   0.90790   -1.000
 4304.00    0.90613   0.91820   -1.000
 4305.00    0.91054   0.92090   -1.000
 4306.00    0.89147   0.91769   -1.000
 4307.00    0.87799   0.91497   -1.000
 4308.00    0.87754   0.91764   -1.000
 4309.00    0.88347   0.92451   -1.000
 4310.00    0.89888   0.92940   -1.000
 4311.00    0.90346   0.92772   -1.000
 4312.00    0.92982   0.92230   -1.000
 4313.00    0.92545   0.92199   -1.000
 4314.00    0.92097   0.93360   -1.000
 4315.00    0.94538   0.95511   -1.000
 4316.00    0.96548   0.97746   -1.000
 4317.00    0.97338   0.99182   -1.000
 4318.00    0.97142   0.99528   -1.000
 4319.00    0.96557   0.99119   -1.000
 4320.00    0.95875   0.98474   -1.000
 4321.00    0.95589   0.97768   -1.000
 4322.00    0.94159   0.96770   -1.000
 4323.00    0.92544   0.95395   -1.000
 4324.00    0.91250   0.94196   -1.000
 4325.00    0.90573   0.93910   -1.000
 4326.00    0.91672   0.94582   -1.000
 4327.00    0.93656   0.95456   -1.000
 4328.00    0.94158   0.95758   -1.000
 4329.00    0.93394   0.95382   -1.000
 4330.00    0.92701   0.94677   -1.000
 4331.00    0.91595   0.93858   -1.000
 4332.00    0.91080   0.92751   -1.000
 4333.00    0.90245   0.90951   -1.000
 4334.00    0.88771   0.88017   -1.000
 4335.00    0.86358   0.83637   -1.000
 4336.00    0.82374   0.77951   -1.000
 4337.00    0.77386   0.71777   -1.000
 4338.00    0.70137   0.66442   -1.000
 4339.00    0.63324   0.63427  708.574
 4340.00    0.62027   0.63750   -1.000
 4341.00    0.67870   0.67294   -1.000
 4342.00    0.76045   0.72746   -1.000
 4343.00    0.81513   0.78477   -1.000
 4344.00    0.85146   0.83494   -1.000
 4345.00    0.87837   0.87553  592.444
 4346.00    0.89543   0.90594   -1.000
 4347.00    0.90642   0.92442   -1.000
 4348.00    0.91534   0.92985   -1.000
 4349.00    0.92265   0.92588  551.737
 4350.00    0.91872   0.92081  553.877
 4351.00    0.91385   0.92297   -1.000
 4352.00    0.91826   0.93544   -1.000
 4353.00    0.93291   0.95474   -1.000
 4354.00    0.94504   0.97411   -1.000
 4355.00    0.95084   0.98800   -1.000
 4356.00    0.96338   0.99473   -1.000
 4357.00    0.96694   0.99670   -1.000
 4358.00    0.96071   0.99819   -1.000
 4359.00    0.95971   1.00216   -1.000
 4360.00    0.97079   1.00884   -1.000
 4361.00    0.98045   1.01643   -1.000
 4362.00    0.98108   1.02264   -1.000
 4363.00    0.97906   1.02541   -1.000
 4364.00    0.98306   1.02338   -1.000
 4365.00    0.97876   1.01636   -1.000
 4366.00    0.97579   1.00652   -1.000
 4367.00    0.97203   0.99764   -1.000
 4368.00    0.97118   0.99255   -1.000
 4369.00    0.97795   0.99109   -1.000
 4370.00    0.98071   0.98982   -1.000
 4371.00    0.98611   0.98468  563.985
 4372.00    0.98033   0.97457   -1.000
 4373.00    0.96644   0.96420  569.605
 4374.00    0.95144   0.96114   -1.000
 4375.00    0.95540   0.96917   -1.000
 4376.00    0.97042   0.98445   -1.000
 4377.00    0.97598   0.99891   -1.000
 4378.00    0.98508   1.00630   -1.000
 4379.00    0.98982   1.00399   -1.000
 4380.00    0.98832   0.99120  554.996
 4381.00    0.97431   0.96944  565.272
 4382.00    0.95437   0.94492   -1.000
 4383.00    0.94199   0.92740   -1.000
 4384.00    0.94693   0.92441   -1.000
 4385.00    0.96179   0.93548   -1.000
 4386.00    0.97555   0.95345   -1.000
 4387.00    0.98467   0.96981   -1.000
 4388.00    0.98178   0.97950  587.739
 4389.00    0.98111   0.98256  588.989
 4390.00    0.98645   0.98133   -1.000
 4391.00    0.97863   0.97636  597.385
 4392.00    0.98136   0.96718   -1.000
 4393.00    0.97707   0.95665   -1.000
 4394.00    0.96465   0.95118   -1.000
 4395.00    0.96591   0.95378   -1.000
 4396.00    0.97998   0.96021   -1.000
 4397.00    0.98795   0.96369   -1.000
 4398.00    0.98430   0.96287   -1.000
 4399.00    0.97892   0.96284   -1.000
 4400.00    0.97707   0.96759   -1.000
 4401.00    0.98480   0.97509   -1.000
 4402.00    0.98998   0.98066   -1.000
 4403.00    0.98329   0.98263  571.070
 4404.00    0.97235   0.98293   -1.000
 4405.00    0.97032   0.98330   -1.000
 4406.00    0.98493   0.98351  631.981
 4407.00    0.98940   0.98334   -1.000
 4408.00    0.98971   0.98421   -1.000
 4409.00    0.99286   0.98746   -1.000
 4410.00    0.99756   0.99194   -1.000
 4411.00    0.99763   0.99364  547.693
 4412.00    1.00374   0.98828   -1.000
 4413.00    0.99403   0.97502   -1.000
 4414.00    0.97420   0.95832   -1.000
 4415.00    0.96503   0.94571   -1.000
 4416.00    0.96693   0.94385   -1.000
 4417.00    0.97943   0.95418   -1.000
 4418.00    0.98910   0.97168   -1.000
 4419.00    0.99314   0.98801   -1.000
 4420.00    0.99760   0.99791  526.505
 4421.00    0.99103   1.00215   -1.000
 4422.00    0.99031   1.00404   -1.000
 4423.00    0.99350   1.00514   -1.000
 4424.00    0.99323   1.00516   -1.000
 4425.00    0.98571   1.00411   -1.000
 4426.00    0.98256   1.00317   -1.000
 4427.00    0.98279   1.00342   -1.000
 4428.00    0.98317   1.00474   -1.000
 4429.00    0.98343   1.00629   -1.000
 4430.00    0.98906   1.00738   -1.000
 4431.00    0.98990   1.00743   -1.000
 4432.00    0.98988   1.00582   -1.000
 4433.00    0.98793   1.00339   -1.000
 4434.00    0.97843   1.00299   -1.000
 4435.00    0.97805   1.00758   -1.000
 4436.00    0.99043   1.01644   -1.000
 4437.00    1.00547   1.02491   -1.000
 4438.00    1.00790   1.02683   -1.000
 4439.00    0.99949   1.01887   -1.000
 4440.00    0.99381   1.00224   -1.000
 4441.00    0.98588   0.98311  529.678
 4442.00    0.96962   0.97057  555.620
 4443.00    0.96356   0.97144   -1.000
 4444.00    0.97876   0.98451  580.145
 4445.00    0.99449   1.00155   -1.000
 4446.00    1.00049   1.01412   -1.000
 4447.00    0.99887   1.01868   -1.000
 4448.00    0.99667   1.01735   -1.000
 4449.00    0.99618   1.01495   -1.000
 4450.00    0.99017   1.01479   -1.000
 4451.00    0.99219   1.01617   -1.000
 4452.00    0.99700   1.01580   -1.000
 4453.00    0.98931   1.01266   -1.000
 4454.00    0.98395   1.00954   -1.000
 4455.00    0.98663   1.00952   -1.000
 4456.00    0.99255   1.01239   -1.000
 4457.00    0.99657   1.01537   -1.000
 4458.00    1.00169   1.01596   -1.000
 4459.00    0.99418   1.01412   -1.000
 4460.00    0.98871   1.01177   -1.000
 4461.00    0.98668   1.01022   -1.000
 4462.00    0.99129   1.00937   -1.000
 4463.00    1.00204   1.00836   -1.000
 4464.00    0.99522   1.00581   -1.000
 4465.00    0.99522   0.99989  540.270
 4466.00    0.98903   0.99029  539.861
 4467.00    0.97973   0.98046  540.261
 4468.00    0.97372   0.97582  546.637
 4469.00    0.98277   0.97963  557.398
 4470.00    0.99086   0.99051  560.517
 4471.00    0.99991   1.00437  552.337
 4472.00    1.00943   1.01735   -1.000
 4473.00    1.01706   1.02716   -1.000
 4474.00    1.01174   1.03318   -1.000
 4475.00    1.01311   1.03584   -1.000
 4476.00    1.01438   1.03504   -1.000
 4477.00    1.01643   1.02929   -1.000
 4478.00    1.01368   1.01770  491.859
 4479.00    1.01469   1.00341   -1.000
 4480.00    1.00062   0.99361   -1.000
 4481.00    0.99266   0.99448  539.071
 4482.00    0.99372   1.00562   -1.000
 4483.00    1.00444   1.02080   -1.000
 4484.00    1.00678   1.03241   -1.000
 4485.00    1.01848   1.03554   -1.000
 4486.00    1.01605   1.02967   -1.000
 4487.00    1.00965   1.01927   -1.000
 4488.00    1.00844   1.01069  505.969
 4489.00    1.00048   1.00809   -1.000
 4490.00    1.00246   1.01135   -1.000
 4491.00    1.00493   1.01679   -1.000
 4492.00    1.00370   1.02089   -1.000
 4493.00    1.00902   1.02287   -1.000
 4494.00    1.00037   1.02405   -1.000
 4495.00    1.00346   1.02558   -1.000
 4496.00    1.00491   1.02692   -1.000
 4497.00    1.01035   1.02597   -1.000
 4498.00    1.01337   1.02080   -1.000
 4499.00    1.00738   1.01330  504.541
 4500.00    0.99273   1.00894   -1.000
 4501.00    0.98914   1.01209   -1.000
 4502.00    1.00429   1.02174   -1.000
 4503.00    1.01259   1.03223   -1.000
 4504.00    1.01626   1.03793   -1.000
 4505.00    1.01644   1.03682   -1.000
 4506.00    1.01220   1.03145   -1.000
 4507.00    1.01591   1.02706   -1.000
 4508.00    1.01747   1.02731   -1.000
 4509.00    1.02334   1.03146   -1.000
 4510.00    1.01879   1.03587   -1.000
 4511.00    1.01485   1.03708   -1.000
 4512.00    1.01365   1.03377   -1.000
 4513.00    1.01326   1.02749   -1.000
 4514.00    1.01227   1.02152   -1.000
 4515.00    1.01262   1.01798  506.455
 4516.00    1.01120   1.01605  503.837
 4517.00    1.00833   1.01330  503.506
 4518.00    1.01102   1.00890  509.802
 4519.00    1.01375   1.00398   -1.000
 4520.00    1.01695   0.99980   -1.000
 4521.00    1.00815   0.99729   -1.000
 4522.00    0.99961   0.99749  495.496
 4523.00    1.00550   1.00045  507.473
 4524.00    1.00894   1.00415  517.757
 4525.00    1.00734   1.00557  522.097
 4526.00    1.00173   1.00300  530.947
 4527.00    0.99596   0.99801  547.388
 4528.00    0.98911   0.99429  562.848
 4529.00    0.98896   0.99365  569.484
 4530.00    0.99752   0.99344  565.188
 4531.00    1.00229   0.98964   -1.000
 4532.00    0.98992   0.98263   -1.000
 4533.00    0.98002   0.97820  542.399
 4534.00    0.98108   0.98208  557.888
 4535.00    0.99152   0.99422  576.982
 4536.00    1.00509   1.00912  569.165
 4537.00    1.01527   1.02015  536.391
 4538.00    1.02187   1.02383  504.658
 4539.00    1.01899   1.02122  491.218
 4540.00    1.01448   1.01638  496.165
 4541.00    1.01367   1.01310  508.296
 4542.00    1.05217   1.01246   -1.000
 4543.00    0.81660   1.01346   -1.000
 4544.00    0.04824   1.01465   -1.000
 4545.00   -0.05409   1.01391    0.000
 4546.00    0.18715   1.00822   -2.000
 4547.00    0.75784   0.99657   -2.000
 4548.00    0.21407   0.98362   -2.000
 4549.00    0.88226   0.97716   -1.000
 4550.00    0.99769   0.97948   -1.000
 4551.00    0.99605   0.98435   -1.000
 4552.00    0.99895   0.98460   -1.000
 4553.00    0.99175   0.98003   -1.000
 4554.00    0.98919   0.97695   -1.000
 4555.00    0.99505   0.98081   -1.000
 4556.00    1.00454   0.99089   -1.000
 4557.00    1.01431   1.00280   -1.000
 4558.00    1.01724   1.01340  491.237
 4559.00    1.01917   1.02105  482.626
 4560.00    1.02071   1.02349  485.344
 4561.00    1.00952   1.01920   -1.000
 4562.00    1.00563   1.01099  485.247
 4563.00    1.00025   1.00531  496.581
 4564.00    1.00003   1.00659  509.026
 4565.00    1.01021   1.01363  517.741
 4566.00    1.01707   1.02149  512.055
 4567.00    1.02005   1.02552  499.006
 4568.00    1.01914   1.02362  485.772
 4569.00    1.01535   1.01622  480.888
 4570.00    1.00087   1.00667  486.185
 4571.00    0.99216   1.00106   -1.000
 4572.00    1.00128   1.00279  511.741
 4573.00    1.00830   1.00886  508.082
 4574.00    1.01551   1.01408  492.685
 4575.00    1.01264   1.01612  485.613
 4576.00    1.01355   1.01573  485.877
 4577.00    1.01201   1.01364  488.127
 4578.00    1.00976   1.00935  490.964
 4579.00    1.01233   1.00247   -1.000
 4580.00    1.01101   0.99335   -1.000
 4581.00    1.00949   0.98316   -1.000
 4582.00    1.00309   0.97590   -1.000
 4583.00    1.00263   0.97611   -1.000
 4584.00    1.00459   0.98367   -1.000
 4585.00    1.00667   0.99346   -1.000
 4586.00    1.01211   0.99983   -1.000
 4587.00    1.01657   1.00080   -1.000
 4588.00    1.01378   0.99875   -1.000
 4589.00    1.00987   0.99747   -1.000
 4590.00    1.01103   0.99900   -1.000
 4591.00    1.00463   1.00321  492.374
 4592.00    1.00142   1.00897   -1.000
 4593.00    1.01258   1.01505  510.402
 4594.00    1.01826   1.02072  510.971
 4595.00    1.01499   1.02539   -1.000
 4596.00    1.01382   1.02809   -1.000
 4597.00    1.01868   1.02811   -1.000
 4598.00    1.01990   1.02560  500.225
 4599.00    1.01169   1.02174   -1.000
 4600.00    1.01108   1.01820   -1.000
 4601.00    1.00979   1.01622  507.991
 4602.00    1.00307   1.01609   -1.000
 4603.00    1.00703   1.01731   -1.000
 4604.00    1.01010   1.01920   -1.000
 4605.00    1.01568   1.02143  499.183
 4606.00    1.01568   1.02373   -1.000
 4607.00    1.01618   1.02570   -1.000
 4608.00    1.01853   1.02708   -1.000
 4609.00    1.01990   1.02773   -1.000
 4610.00    1.01947   1.02767   -1.000
 4611.00    1.02532   1.02708  469.279
 4612.00    1.01912   1.02617   -1.000
 4613.00    1.01728   1.02437   -1.000
 4614.00    1.01632   1.02063  484.191
 4615.00    1.01773   1.01505  481.870
 4616.00    1.01965   1.00896   -1.000
 4617.00    1.02203   1.00404   -1.000
 4618.00    1.01965   1.00199   -1.000
 4619.00    1.01814   1.00389   -1.000
 4620.00    1.01800   1.00958   -1.000
 4621.00    1.01961   1.01693  477.368
 4622.00    1.02511   1.02293  469.791
 4623.00    1.02202   1.02567  469.526
 4624.00    1.01761   1.02499   -1.000
 4625.00    1.01650   1.02147  471.643
 4626.00    1.01417   1.01567  475.943
 4627.00    1.01124   1.00907  477.168
 4628.00    1.00921   1.00488  476.932
 4629.00    1.01049   1.00569  479.967
 4630.00    1.01003   1.01039  481.039
 4631.00    1.01621   1.01496  478.679
 4632.00    1.01314   1.01648  473.173
 4633.00    1.01454   1.01579  475.148
 4634.00    1.01904   1.01604  482.055
 4635.00    1.02291   1.01877  487.426
 4636.00    1.02184   1.02328  487.085
 4637.00    1.01932   1.02814   -1.000
 4638.00    1.02009   1.03269   -1.000
 4639.00    1.02114   1.03688   -1.000
 4640.00    1.02390   1.04038   -1.000
 4641.00    1.02390   1.04263   -1.000
 4642.00    1.02196   1.04312   -1.000
 4643.00    1.02275   1.04159   -1.000
 4644.00    1.01856   1.03818   -1.000
 4645.00    1.01356   1.03365   -1.000
 4646.00    1.00901   1.02971   -1.000
 4647.00    1.01318   1.02806   -1.000
 4648.00    1.01934   1.02908   -1.000
 4649.00    1.02099   1.03186   -1.000
 4650.00    1.02225   1.03467   -1.000
 4651.00    1.01971   1.03574   -1.000
 4652.00    1.01282   1.03415   -1.000
 4653.00    1.01055   1.03013   -1.000
 4654.00    1.00990   1.02512   -1.000
 4655.00    1.01049   1.02137   -1.000
 4656.00    1.01276   1.02153   -1.000
 4657.00    1.01271   1.02657   -1.000
 4658.00    1.01891   1.03420   -1.000
 4659.00    1.02451   1.04044   -1.000
 4660.00    1.02728   1.04262   -1.000
 4661.00    1.02559   1.04075   -1.000
 4662.00    1.02406   1.03653   -1.000
 4663.00    1.02851   1.03107  472.494
 4664.00    1.02597   1.02416  481.897
 4665.00    1.01748   1.01579  483.218
 4666.00    1.01341   1.00793  490.978
 4667.00    1.00819   1.00317  511.856
 4668.00    1.00521   1.00277  533.283
 4669.00    1.01045   1.00658  534.410
 4670.00    1.01505   1.01339  518.345
 4671.00    1.02469   1.02111  496.678
 4672.00    1.02117   1.02783  483.033
 4673.00    1.02181   1.03269   -1.000
 4674.00    1.02605   1.03566   -1.000
 4675.00    1.02181   1.03679   -1.000
 4676.00    1.02496   1.03566   -1.000
 4677.00    1.02326   1.03239   -1.000
 4678.00    1.02353   1.02808  468.610
 4679.00    1.02058   1.02393  478.646
 4680.00    1.01722   1.02102  488.175
 4681.00    1.01607   1.01982  496.290
 4682.00    1.02254   1.02009  501.186
 4683.00    1.02082   1.02123  495.239
 4684.00    1.02719   1.02255  482.837
 4685.00    1.02790   1.02384  476.317
 4686.00    1.02832   1.02509  477.738
 4687.00    1.02884   1.02626  477.991
 4688.00    1.03127   1.02697  480.654
 4689.00    1.02864   1.02683  480.768
 4690.00    1.02515   1.02627  480.804
 4691.00    1.01994   1.02611  484.182
 4692.00    1.02422   1.02666  485.275
 4693.00    1.02642   1.02741  479.705
 4694.00    1.02718   1.02762  472.568
 4695.00    1.02918   1.02640  462.107
 4696.00    1.02820   1.02312  456.067
 4697.00    1.02905   1.01864   -1.000
 4698.00    1.02565   1.01438   -1.000
 4699.00    1.02116   1.01080   -1.000
 4700.00    1.01852   1.00744   -1.000
 4701.00    1.01460   1.00428   -1.000
 4702.00    1.00904   1.00236   -1.000
 4703.00    1.00828   1.00269   -1.000
 4704.00    1.01455   1.00419   -1.000
 4705.00    1.02076   1.00448   -1.000
 4706.00    1.01432   1.00238   -1.000
 4707.00    1.00670   0.99952   -1.000
 4708.00    1.01016   0.99888   -1.000
 4709.00    1.01312   1.00151   -1.000
 4710.00    1.01645   1.00573   -1.000
 4711.00    1.02016   1.00876   -1.000
 4712.00    1.02055   1.00927   -1.000
 4713.00    1.01915   1.00849   -1.000
 4714.00    1.01676   1.00864   -1.000
 4715.00    1.01857   1.01076   -1.000
 4716.00    1.02032   1.01371   -1.000
 4717.00    1.02303   1.01596   -1.000
 4718.00    1.02810   1.01709   -1.000
 4719.00    1.02575   1.01751   -1.000
 4720.00    1.01776   1.01781  461.800
 4721.00    1.01748   1.01850  460.220
 4722.00    1.02070   1.01996  463.947
 4723.00    1.01933   1.02204  467.298
 4724.00    1.02136   1.02367  464.784
 4725.00    1.02374   1.02374  459.793
 4726.00    1.01734   1.02170  460.275
 4727.00    1.01414   1.01760  471.094
 4728.00    1.01603   1.01219  488.880
 4729.00    1.01595   1.00650   -1.000
 4730.00    1.01648   1.00261   -1.000
 4731.00    1.01449   1.00240   -1.000
 4732.00    1.01103   1.00528   -1.000
 4733.00    1.01837   1.00861   -1.000
 4734.00    1.00849   1.01011  479.753
 4735.00    1.00831   1.00955  476.975
 4736.00    1.01129   1.00839  474.320
 4737.00    1.01405   1.00780   -1.000
 4738.00    1.01593   1.00793   -1.000
 4739.00    1.01881   1.00881   -1.000
 4740.00    1.01925   1.01038   -1.000
 4741.00    1.01999   1.01256   -1.000
 4742.00    1.01483   1.01520  477.315
 4743.00    1.01848   1.01799  473.662
 4744.00    1.02104   1.02088  468.516
 4745.00    1.01956   1.02383  469.198
 4746.00    1.01728   1.02667   -1.000
 4747.00    1.02013   1.02942   -1.000
 4748.00    1.02479   1.03157  461.620
 4749.00    1.02129   1.03297   -1.000
 4750.00    1.01999   1.03339   -1.000
 4751.00    1.01694   1.03278   -1.000
 4752.00    1.01920   1.03132   -1.000
 4753.00    1.01450   1.02950   -1.000
 4754.00    1.01289   1.02798   -1.000
 4755.00    1.01578   1.02748   -1.000
 4756.00    1.01667   1.02786   -1.000
 4757.00    1.02016   1.02807   -1.000
 4758.00    1.02031   1.02685  481.754
 4759.00    1.01649   1.02311   -1.000
 4760.00    1.01437   1.01623  478.618
 4761.00    1.01230   1.00757  477.580
 4762.00    1.00547   1.00011  484.666
 4763.00    1.00007   0.99719  496.659
 4764.00    1.00199   1.00009  503.381
 4765.00    1.01022   1.00728  504.390
 4766.00    1.01663   1.01569  503.406
 4767.00    1.01753   1.02283  499.979
 4768.00    1.01568   1.02744   -1.000
 4769.00    1.01492   1.02910   -1.000
 4770.00    1.01795   1.02846   -1.000
 4771.00    1.01588   1.02711   -1.000
 4772.00    1.01397   1.02651   -1.000
 4773.00    1.01452   1.02724   -1.000
 4774.00    1.01894   1.02848   -1.000
 4775.00    1.02275   1.02884  468.695
 4776.00    1.02035   1.02714  465.111
 4777.00    1.01516   1.02289   -1.000
 4778.00    1.01368   1.01748  466.658
 4779.00    1.00965   1.01398  469.627
 4780.00    1.01026   1.01445  474.817
 4781.00    1.01338   1.01750  477.769
 4782.00    1.01293   1.02015   -1.000
 4783.00    1.01416   1.02071  481.320
 4784.00    1.01643   1.01927  485.136
 4785.00    1.01563   1.01699  485.169
 4786.00    1.01053   1.01530  486.684
 4787.00    1.01357   1.01496  491.382
 4788.00    1.01128   1.01597  494.347
 4789.00    1.01784   1.01802  494.030
 4790.00    1.02072   1.02075  491.688
 4791.00    1.02427   1.02387  488.679
 4792.00    1.01911   1.02702   -1.000
 4793.00    1.01887   1.02962   -1.000
 4794.00    1.02181   1.03033   -1.000
 4795.00    1.02054   1.02859   -1.000
 4796.00    1.01824   1.02491  455.248
 4797.00    1.01726   1.02125  459.500
 4798.00    1.01763   1.01971  468.554
 4799.00    1.01746   1.02094  477.406
 4800.00    1.01928   1.02323  483.281
 4801.00    1.02136   1.02388  479.630
 4802.00    1.02085   1.02088  470.178
 4803.00    1.01808   1.01489  463.228
 4804.00    1.01604   1.00970   -1.000
 4805.00    1.01405   1.00839   -1.000
 4806.00    1.01649   1.01137  475.451
 4807.00    1.01999   1.01611  479.888
 4808.00    1.01991   1.01964  480.037
 4809.00    1.01999   1.02082  478.875
 4810.00    1.01750   1.02063  476.776
 4811.00    1.01889   1.02110  472.573
 4812.00    1.02100   1.02332  469.121
 4813.00    1.02158   1.02661  466.665
 4814.00    1.02183   1.02940   -1.000
 4815.00    1.02089   1.03080   -1.000
 4816.00    1.01994   1.03101   -1.000
 4817.00    1.01999   1.03026   -1.000
 4818.00    1.02083   1.02851   -1.000
 4819.00    1.02006   1.02535  455.724
 4820.00    1.02145   1.02011  455.453
 4821.00    1.02045   1.01283   -1.000
 4822.00    1.01336   1.00494   -1.000
 4823.00    1.01124   0.99957   -1.000
 4824.00    1.01414   0.99883   -1.000
 4825.00    1.01555   1.00208   -1.000
 4826.00    1.01595   1.00656   -1.000
 4827.00    1.01633   1.00973   -1.000
 4828.00    1.01948   1.01070   -1.000
 4829.00    1.01739   1.01014   -1.000
 4830.00    1.01735   1.00883   -1.000
 4831.00    1.01740   1.00716   -1.000
 4832.00    1.01924   1.00547   -1.000
 4833.00    1.01417   1.00358   -1.000
 4834.00    1.01404   1.00157   -1.000
 4835.00    1.01380   0.99980   -1.000
 4836.00    1.00991   0.99892   -1.000
 4837.00    1.00768   0.99876   -1.000
 4838.00    1.01212   0.99863   -1.000
 4839.00    1.00828   0.99819   -1.000
 4840.00    1.00610   0.99762   -1.000
 4841.00    1.00194   0.99680  482.025
 4842.00    1.00661   0.99533   -1.000
 4843.00    1.00563   0.99276   -1.000
 4844.00    1.00436   0.98879   -1.000
 4845.00    0.99840   0.98327   -1.000
 4846.00    0.99780   0.97635   -1.000
 4847.00    0.98988   0.96943   -1.000
 4848.00    0.98430   0.96447   -1.000
 4849.00    0.98207   0.96173   -1.000
 4850.00    0.97780   0.95883   -1.000
 4851.00    0.97193   0.95260   -1.000
 4852.00    0.96643   0.94066   -1.000
 4853.00    0.95924   0.92315   -1.000
 4854.00    0.94788   0.90218   -1.000
 4855.00    0.93483   0.87953   -1.000
 4856.00    0.91462   0.85288   -1.000
 4857.00    0.88582   0.81669   -1.000
 4858.00    0.83782   0.76833   -1.000
 4859.00    0.75622   0.71426   -1.000
 4860.00    0.67808   0.67289   -1.000
 4861.00    0.66839   0.66228   -1.000
 4862.00    0.73431   0.68787   -1.000
 4863.00    0.81786   0.73646   -1.000
 4864.00    0.87489   0.79019   -1.000
 4865.00    0.90709   0.83698   -1.000
 4866.00    0.92705   0.87284   -1.000
 4867.00    0.94273   0.89797   -1.000
 4868.00    0.95304   0.91331   -1.000
 4869.00    0.95659   0.92054   -1.000
 4870.00    0.95596   0.92336   -1.000
 4871.00    0.95740   0.92647   -1.000
 4872.00    0.96261   0.93238   -1.000
 4873.00    0.97001   0.94037   -1.000
 4874.00    0.98371   0.94797   -1.000
 4875.00    0.98837   0.95416   -1.000
 4876.00    0.98752   0.95991   -1.000
 4877.00    0.98870   0.96671   -1.000
 4878.00    0.99136   0.97465   -1.000
 4879.00    0.99780   0.98165   -1.000
 4880.00    0.99999   0.98515   -1.000
 4881.00    1.00130   0.98420   -1.000
 4882.00    0.99972   0.98100   -1.000
 4883.00    1.00073   0.97916   -1.000
 4884.00    1.00269   0.98095   -1.000
 4885.00    1.00545   0.98500   -1.000
 4886.00    1.00611   0.98831   -1.000
 4887.00    1.00365   0.98828   -1.000
 4888.00    1.00112   0.98434   -1.000
 4889.00    0.99517   0.97901   -1.000
 4890.00    0.98429   0.97635   -1.000
 4891.00    0.98641   0.98014   -1.000
 4892.00    0.99822   0.98998   -1.000
 4893.00    1.00953   1.00185   -1.000
 4894.00    1.01691   1.01200  467.764
 4895.00    1.02064   1.01824  453.168
 4896.00    1.02162   1.02015  444.220
 4897.00    1.01647   1.01821  441.488
 4898.00    1.01445   1.01382  442.163
 4899.00    1.01788   1.00945   -1.000
 4900.00    1.01410   1.00721   -1.000
 4901.00    1.00978   1.00738  467.314
 4902.00    1.01241   1.00913  465.743
 4903.00    1.01492   1.01230  466.061
 4904.00    1.01566   1.01658  471.348
 4905.00    1.01923   1.02056  467.360
 4906.00    1.01983   1.02196  457.739
 4907.00    1.02037   1.01967  453.506
 4908.00    1.01787   1.01437  456.930
 4909.00    1.01802   1.00818   -1.000
 4910.00    1.01920   1.00411   -1.000
 4911.00    1.01394   1.00411   -1.000
 4912.00    1.01757   1.00789   -1.000
 4913.00    1.02016   1.01290   -1.000
 4914.00    1.01815   1.01630  467.232
 4915.00    1.02218   1.01509   -1.000
 4916.00    1.02067   1.00813   -1.000
 4917.00    1.01493   0.99583   -1.000
 4918.00    1.00464   0.98165   -1.000
 4919.00    0.98904   0.96921   -1.000
 4920.00    0.98282   0.96110   -1.000
 4921.00    0.98933   0.95708   -1.000
 4922.00    0.99838   0.95636   -1.000
 4923.00    0.99947   0.95994   -1.000
 4924.00    1.00482   0.96980   -1.000
 4925.00    1.01301   0.98425   -1.000
 4926.00    1.01838   0.99861   -1.000
 4927.00    1.02430   1.00931   -1.000
 4928.00    1.02438   1.01501   -1.000
 4929.00    1.02686   1.01600   -1.000
 4930.00    1.02599   1.01237   -1.000
 4931.00    1.01879   1.00468   -1.000
 4932.00    1.01063   0.99544   -1.000
 4933.00    1.00419   0.98879   -1.000
 4934.00    1.00154   0.98796   -1.000
 4935.00    1.00914   0.99120   -1.000
 4936.00    1.01460   0.99440   -1.000
 4937.00    1.01491   0.99580   -1.000
 4938.00    1.00783   0.99693   -1.000
 4939.00    1.01070   1.00081   -1.000
 4940.00    1.01466   1.00759   -1.000
 4941.00    1.01702   1.01558  484.017
 4942.00    1.02633   1.02177  468.289
 4943.00    1.02488   1.02509  458.902
 4944.00    1.02556   1.02555  454.234
 4945.00    1.02388   1.02481  454.056
 4946.00    1.02249   1.02446  456.992
 4947.00    1.02627   1.02501  458.269
 4948.00    1.02666   1.02608  454.717
 4949.00    1.02616   1.02672  449.435
 4950.00    1.02475   1.02661  447.603
 4951.00    1.02379   1.02569  445.792
 4952.00    1.02569   1.02357  447.619
 4953.00    1.02646   1.01899   -1.000
 4954.00    1.02168   1.01043   -1.000
 4955.00    1.00813   0.99884   -1.000
 4956.00    0.99391   0.98855  472.809
 4957.00    0.98857   0.98578  495.876
 4958.00    0.99737   0.99264   -1.000
 4959.00    1.01168   1.00488   -1.000
 4960.00    1.01945   1.01709  482.832
 4961.00    1.02649   1.02513  464.770
 4962.00    1.02955   1.02835  459.705
 4963.00    1.02390   1.02748  461.209
 4964.00    1.01959   1.02435  464.738
 4965.00    1.02028   1.02048  470.034
 4966.00    1.02341   1.01793   -1.000
 4967.00    1.02277   1.01711   -1.000
 4968.00    1.02061   1.01789  487.144
 4969.00    1.02207   1.01979  485.882
 4970.00    1.02616   1.02227  482.551
 4971.00    1.02800   1.02467  477.567
 4972.00    1.02893   1.02667  472.436
 4973.00    1.02741   1.02769  466.853
 4974.00    1.02917   1.02739  462.296
 4975.00    1.02724   1.02576  460.102
 4976.00    1.02844   1.02321  462.676
 4977.00    1.02889   1.01993   -1.000
 4978.00    1.02365   1.01612   -1.000
 4979.00    1.02437   1.01052   -1.000
 4980.00    1.02170   1.00276   -1.000
 4981.00    1.00712   0.99454   -1.000
 4982.00    1.00334   0.98855   -1.000
 4983.00    1.00559   0.98764   -1.000
 4984.00    1.00794   0.99175   -1.000
 4985.00    1.01252   0.99937   -1.000
 4986.00    1.02005   1.00731   -1.000
 4987.00    1.02274   1.01281   -1.000
 4988.00    1.02161   1.01390   -1.000
 4989.00    1.01784   1.01118   -1.000
 4990.00    1.01205   1.00694  481.924
 4991.00    1.01389   1.00408   -1.000
 4992.00    1.01755   1.00429   -1.000
 4993.00    1.01705   1.00729   -1.000
 4994.00    1.01742   1.01180   -1.000
 4995.00    1.01908   1.01528  481.446
 4996.00    1.01836   1.01507  479.262
 4997.00    1.01782   1.00967   -1.000
 4998.00    1.01727   1.00089   -1.000
 4999.00    1.01557   0.99221   -1.000
 5000.00    1.01429   0.98902   -1.000
 5001.00    1.01444   0.99015   -1.000
 5002.00    1.01666   0.99253   -1.000
 5003.00    1.01668   0.99257   -1.000
 5004.00    1.01465   0.98987   -1.000
 5005.00    1.00844   0.98736   -1.000
 5006.00    1.00299   0.98778   -1.000
 5007.00    1.00294   0.99159   -1.000
 5008.00    1.01040   0.99563   -1.000
 5009.00    1.01748   0.99682   -1.000
 5010.00    1.01226   0.99385   -1.000
 5011.00    1.00523   0.98821   -1.000
 5012.00    0.99860   0.98275   -1.000
 5013.00    0.99777   0.97928   -1.000
 5014.00    1.00237   0.97736   -1.000
 5015.00    1.00603   0.97428   -1.000
 5016.00    1.00299   0.96881   -1.000
 5017.00    0.99654   0.96340   -1.000
 5018.00    0.99688   0.96326   -1.000
 5019.00    1.00254   0.97103   -1.000
 5020.00    1.01067   0.98327   -1.000
 5021.00    1.01264   0.99545   -1.000
 5022.00    1.01600   1.00474   -1.000
 5023.00    1.01712   1.01117   -1.000
 5024.00    1.02002   1.01529  499.721
 5025.00    1.02233   1.01741  494.736
 5026.00    1.01956   1.01748  491.131
 5027.00    1.01902   1.01596  492.700
 5028.00    1.01855   1.01349  495.098
 5029.00    1.01952   1.01118   -1.000
 5030.00    1.01886   1.01040   -1.000
 5031.00    1.02245   1.01183   -1.000
 5032.00    1.02191   1.01388   -1.000
 5033.00    1.01668   1.01452  462.339
 5034.00    1.01801   1.01297  462.246
 5035.00    1.01188   1.00997  475.109
 5036.00    1.01214   1.00643   -1.000
 5037.00    1.00866   1.00180   -1.000
 5038.00    1.00755   0.99509   -1.000
 5039.00    0.99790   0.98792   -1.000
 5040.00    0.98709   0.98316  529.903
 5041.00    0.98827   0.98492  551.530
 5042.00    0.99643   0.99273  554.982
 5043.00    1.00490   1.00372  531.691
 5044.00    1.05194   1.01356   -1.000
 5045.00    0.60070   1.01966   -1.000
 5046.00    0.11117   1.02074   -1.000
 5047.00   -0.03493   1.01711    0.000
 5048.00    0.38978   1.00924   -1.000
 5049.00    0.90564   0.99934   -1.000
 5050.00    0.99127   0.99069  449.192
 5051.00    1.00579   0.98723   -1.000
 5052.00    1.01638   0.99216   -1.000
 5053.00    1.02195   1.00287   -1.000
 5054.00    1.02366   1.01384   -1.000
 5055.00    1.02221   1.02160  467.381
 5056.00    1.02082   1.02584  462.370
 5057.00    1.01961   1.02818   -1.000
 5058.00    1.01936   1.02976   -1.000
 5059.00    1.01802   1.03054   -1.000
 5060.00    1.02081   1.03008   -1.000
 5061.00    1.02330   1.02785  459.112
 5062.00    1.02027   1.02394  458.864
 5063.00    1.01679   1.01917  464.221
 5064.00    1.01548   1.01482  476.759
 5065.00    1.01663   1.01195  493.409
 5066.00    1.01771   1.01042   -1.000
 5067.00    1.01728   1.00964   -1.000
 5068.00    1.01791   1.00917   -1.000
 5069.00    1.02049   1.00893   -1.000
 5070.00    1.02380   1.00869   -1.000
 5071.00    1.02279   1.00817   -1.000
 5072.00    1.02603   1.00751   -1.000
 5073.00    1.02372   1.00701   -1.000
 5074.00    1.02428   1.00659   -1.000
 5075.00    1.02311   1.00543   -1.000
 5076.00    1.02098   1.00263   -1.000
 5077.00    1.01708   0.99805   -1.000
 5078.00    1.00903   0.99361   -1.000
 5079.00    1.00241   0.99163   -1.000
 5080.00    1.00308   0.99313   -1.000
 5081.00    1.00825   0.99679   -1.000
 5082.00    1.01220   1.00108   -1.000
 5083.00    1.01578   1.00524   -1.000
 5084.00    1.01912   1.00890   -1.000
 5085.00    1.02536   1.01161   -1.000
 5086.00    1.02970   1.01357   -1.000
 5087.00    1.02727   1.01543   -1.000
 5088.00    1.02429   1.01777   -1.000
 5089.00    1.02656   1.02062   -1.000
 5090.00    1.02892   1.02334   -1.000
 5091.00    1.02912   1.02553  470.192
 5092.00    1.03049   1.02677  467.740
 5093.00    1.02982   1.02659  462.763
 5094.00    1.02828   1.02431  458.407
 5095.00    1.02540   1.01981  461.378
 5096.00    1.02121   1.01377   -1.000
 5097.00    1.01744   1.00821   -1.000
 5098.00    1.01600   1.00485   -1.000
 5099.00    1.01978   1.00526   -1.000
 5100.00    1.02268   1.00854   -1.000
 5101.00    1.02976   1.01325   -1.000
 5102.00    1.03284   1.01706   -1.000
 5103.00    1.02987   1.01850   -1.000
 5104.00    1.02729   1.01663   -1.000
 5105.00    1.01915   1.01225   -1.000
 5106.00    1.01286   1.00677   -1.000
 5107.00    1.01079   1.00288   -1.000
 5108.00    1.00802   1.00184   -1.000
 5109.00    1.00821   1.00402  501.497
 5110.00    1.01230   1.00858  498.587
 5111.00    1.01849   1.01452  495.044
 5112.00    1.02774   1.02021   -1.000
 5113.00    1.03040   1.02473   -1.000
 5114.00    1.02936   1.02766  476.396
 5115.00    1.03225   1.02943  471.874
 5116.00    1.03448   1.03027  469.102
 5117.00    1.03528   1.02995  464.515
 5118.00    1.03481   1.02808   -1.000
 5119.00    1.02947   1.02475  461.045
 5120.00    1.02984   1.02017   -1.000
 5121.00    1.02755   1.01499   -1.000
 5122.00    1.02050   1.01014   -1.000
 5123.00    1.01380   1.00655   -1.000
 5124.00    1.01665   1.00437   -1.000
 5125.00    1.02108   1.00272   -1.000
 5126.00    1.01640   1.00055   -1.000
 5127.00    1.01364   0.99836   -1.000
 5128.00    1.01853   0.99757   -1.000
 5129.00    1.02077   0.99916   -1.000
 5130.00    1.02351   1.00281   -1.000
 5131.00    1.02243   1.00690   -1.000
 5132.00    1.02006   1.01046   -1.000
 5133.00    1.02532   1.01285   -1.000
 5134.00    1.02805   1.01365   -1.000
 5135.00    1.02597   1.01220   -1.000
 5136.00    1.02199   1.00884   -1.000
 5137.00    1.01528   1.00456   -1.000
 5138.00    1.00989   1.00130   -1.000
 5139.00    1.00807   1.00019   -1.000
 5140.00    1.01127   1.00133   -1.000
 5141.00    1.01699   1.00362   -1.000
 5142.00    1.01843   1.00626   -1.000
 5143.00    1.01680   1.00886   -1.000
 5144.00    1.01884   1.01115   -1.000
 5145.00    1.02510   1.01256   -1.000
 5146.00    1.02983   1.01317   -1.000
 5147.00    1.02936   1.01266   -1.000
 5148.00    1.02795   1.01069   -1.000
 5149.00    1.02242   1.00708   -1.000
 5150.00    1.01833   1.00251   -1.000
 5151.00    1.01332   0.99834   -1.000
 5152.00    1.01512   0.99657   -1.000
 5153.00    1.01745   0.99809   -1.000
 5154.00    1.02227   1.00306   -1.000
 5155.00    1.02645   1.00988   -1.000
 5156.00    1.03190   1.01627   -1.000
 5157.00    1.03983   1.02049   -1.000
 5158.00    1.03509   1.02218   -1.000
 5159.00    1.03427   1.02190   -1.000
 5160.00    1.03370   1.02034   -1.000
 5161.00    1.02952   1.01751   -1.000
 5162.00    1.02827   1.01158   -1.000
 5163.00    1.02790   0.99965   -1.000
 5164.00    1.01902   0.97896   -1.000
 5165.00    0.99342   0.95201   -1.000
 5166.00    0.96547   0.92530   -1.000
 5167.00    0.94694   0.90856   -1.000
 5168.00    0.95239   0.90447   -1.000
 5169.00    0.97252   0.91007   -1.000
 5170.00    0.97966   0.91853   -1.000
 5171.00    0.97088   0.92735   -1.000
 5172.00    0.96990   0.93992   -1.000
 5173.00    0.98794   0.95826   -1.000
 5174.00    1.01056   0.98038   -1.000
 5175.00    1.02598   1.00003   -1.000
 5176.00    1.03185   1.01347   -1.000
 5177.00    1.03488   1.01975   -1.000
 5178.00    1.03714   1.01938   -1.000
 5179.00    1.03582   1.01161   -1.000
 5180.00    1.03124   0.99663   -1.000
 5181.00    1.01600   0.97592   -1.000
 5182.00    0.99222   0.95708   -1.000
 5183.00    0.97778   0.94660   -1.000
 5184.00    0.98788   0.94851   -1.000
 5185.00    1.01050   0.95839   -1.000
 5186.00    1.02253   0.96909   -1.000
 5187.00    1.02399   0.97633   -1.000
 5188.00    1.02209   0.97923   -1.000
 5189.00    1.02089   0.97973   -1.000
 5190.00    1.01281   0.97890   -1.000
 5191.00    1.00430   0.97813   -1.000
 5192.00    1.00543   0.97824   -1.000
 5193.00    1.00702   0.97948   -1.000
 5194.00    1.01017   0.98078   -1.000
 5195.00    1.01737   0.98193   -1.000
 5196.00    1.02171   0.98371   -1.000
 5197.00    1.02495   0.98687   -1.000
 5198.00    1.02823   0.99150   -1.000
 5199.00    1.02690   0.99548   -1.000
 5200.00    1.02796   0.99675   -1.000
 5201.00    1.02338   0.99360   -1.000
 5202.00    1.01751   0.98660   -1.000
 5203.00    1.00794   0.97777   -1.000
 5204.00    1.00259   0.97050   -1.000
 5205.00    1.00268   0.96690   -1.000
 5206.00    1.00509   0.96715   -1.000
 5207.00    1.00457   0.97009   -1.000
 5208.00    1.00460   0.97481   -1.000
 5209.00    1.01275   0.98111   -1.000
 5210.00    1.02340   0.98870   -1.000
 5211.00    1.02782   0.99533   -1.000
 5212.00    1.03136   0.99953   -1.000
 5213.00    1.03296   0.99961   -1.000
 5214.00    1.02715   0.99696   -1.000
 5215.00    1.02255   0.99423   -1.000
 5216.00    1.02383   0.99434   -1.000
 5217.00    1.02515   0.99840   -1.000
 5218.00    1.03325   1.00478   -1.000
 5219.00    1.03888   1.01104   -1.000
 5220.00    1.03983   1.01461   -1.000
 5221.00    1.04189   1.01405   -1.000
 5222.00    1.03956   1.00787   -1.000
 5223.00    1.03332   0.99594   -1.000
 5224.00    1.02176   0.98015   -1.000
 5225.00    1.00344   0.96587   -1.000
 5226.00    0.99072   0.95898   -1.000
 5227.00    0.99627   0.96252   -1.000
 5228.00    1.01372   0.97227   -1.000
 5229.00    1.02737   0.98184   -1.000
 5230.00    1.03315   0.98547   -1.000
 5231.00    1.02630   0.98306   -1.000
 5232.00    1.01917   0.97804   -1.000
 5233.00    1.02261   0.97519   -1.000
 5234.00    1.02613   0.97730   -1.000
 5235.00    1.03017   0.98344   -1.000
 5236.00    1.03556   0.99129   -1.000
 5237.00    1.03924   0.99817   -1.000
 5238.00    1.04079   1.00333   -1.000
 5239.00    1.04118   1.00687   -1.000
 5240.00    1.04029   1.00934   -1.000
 5241.00    1.04121   1.01104   -1.000
 5242.00    1.03940   1.01206   -1.000
 5243.00    1.04038   1.01221   -1.000
 5244.00    1.03766   1.01127   -1.000
 5245.00    1.03590   1.00898   -1.000
 5246.00    1.03283   1.00573   -1.000
 5247.00    1.03038   1.00231   -1.000
 5248.00    1.02760   0.99948   -1.000
 5249.00    1.02597   0.99770   -1.000
 5250.00    1.02335   0.99715   -1.000
 5251.00    1.02699   0.99733   -1.000
 5252.00    1.03164   0.99757   -1.000
 5253.00    1.03343   0.99784   -1.000
 5254.00    1.03324   0.99911   -1.000
 5255.00    1.03090   1.00206   -1.000
 5256.00    1.03247   1.00639   -1.000
 5257.00    1.03994   1.00953   -1.000
 5258.00    1.03977   1.00930   -1.000
 5259.00    1.03621   1.00400   -1.000
 5260.00    1.03392   0.99455   -1.000
 5261.00    1.02505   0.98262   -1.000
 5262.00    1.01613   0.97146   -1.000
 5263.00    1.01300   0.96269   -1.000
 5264.00    1.01090   0.95784   -1.000
 5265.00    1.00697   0.95557   -1.000
 5266.00    1.00761   0.95383   -1.000
 5267.00    1.00735   0.95076   -1.000
 5268.00    0.99365   0.94718   -1.000
 5269.00    0.98065   0.94701   -1.000
 5270.00    0.98791   0.95185   -1.000
 5271.00    1.00778   0.96032   -1.000
 5272.00    1.02292   0.96747   -1.000
 5273.00    1.02654   0.97119   -1.000
 5274.00    1.02622   0.97300   -1.000
 5275.00    1.02906   0.97620   -1.000
 5276.00    1.03504   0.98262   -1.000
 5277.00    1.04082   0.99030   -1.000
 5278.00    1.04235   0.99581   -1.000
 5279.00    1.04092   0.99702   -1.000
 5280.00    1.03738   0.99403   -1.000
 5281.00    1.03136   0.98938   -1.000
 5282.00    1.02617   0.98603   -1.000
 5283.00    1.01943   0.98704   -1.000
 5284.00    0.99774   0.99249   -1.000
 5285.00    1.02398   1.00098   -1.000
 5286.00    1.03949   1.00881   -1.000
 5287.00    1.04033   1.01429   -1.000
 5288.00    1.04183   1.01699   -1.000
 5289.00    1.04228   1.01771   -1.000
 5290.00    1.04191   1.01723   -1.000
 5291.00    1.03949   1.01593   -1.000
 5292.00    1.03953   1.01419   -1.000
 5293.00    1.04012   1.01183   -1.000
 5294.00    1.03827   1.00873   -1.000
 5295.00    1.03763   1.00475   -1.000
 5296.00    1.03355   1.00091   -1.000
 5297.00    1.03064   0.99821   -1.000
 5298.00    1.03525   0.99756   -1.000
 5299.00    1.03798   0.99851   -1.000
 5300.00    1.03349   1.00015   -1.000
 5301.00    1.03027   1.00190   -1.000
 5302.00    1.03410   1.00358   -1.000
 5303.00    1.03833   1.00498   -1.000
 5304.00    1.04169   1.00574   -1.000
 5305.00    1.03886   1.00579   -1.000
 5306.00    1.03598   1.00574   -1.000
 5307.00    1.03711   1.00627   -1.000
 5308.00    1.03828   1.00749   -1.000
 5309.00    1.04039   1.00873   -1.000
 5310.00    1.04064   1.00888   -1.000
 5311.00    1.04219   1.00705   -1.000
 5312.00    1.04220   1.00266   -1.000
 5313.00    1.03977   0.99592   -1.000
 5314.00    1.03784   0.98812   -1.000
 5315.00    1.03343   0.98229   -1.000
 5316.00    1.03077   0.98103   -1.000
 5317.00    1.03202   0.98539   -1.000
 5318.00    1.03512   0.99267   -1.000
 5319.00    1.03832   0.99913   -1.000
 5320.00    1.03788   1.00161   -1.000
 5321.00    1.03531   0.99929   -1.000
 5322.00    1.02937   0.99351   -1.000
 5323.00    1.02856   0.98604   -1.000
 5324.00    1.02710   0.97812   -1.000
 5325.00    1.02076   0.96992   -1.000
 5326.00    1.00660   0.96246   -1.000
 5327.00    0.99564   0.95894   -1.000
 5328.00    0.99243   0.96192   -1.000
 5329.00    1.00896   0.97158   -1.000
 5330.00    1.02912   0.98306   -1.000
 5331.00    1.03485   0.99190   -1.000
 5332.00    1.03661   0.99539   -1.000
 5333.00    1.03774   0.99421   -1.000
 5334.00    1.03560   0.99062   -1.000
 5335.00    1.03263   0.98664   -1.000
 5336.00    1.03081   0.98386   -1.000
 5337.00    1.03439   0.98250   -1.000
 5338.00    1.03302   0.98245   -1.000
 5339.00    1.02702   0.98371   -1.000
 5340.00    1.02268   0.98654   -1.000
 5341.00    1.02472   0.99089   -1.000
 5342.00    1.03163   0.99516   -1.000
 5343.00    1.03584   0.99785   -1.000
 5344.00    1.03426   0.99829   -1.000
 5345.00    1.03388   0.99724   -1.000
 5346.00    1.03681   0.99593   -1.000
 5347.00    1.03849   0.99553   -1.000
 5348.00    1.03821   0.99634   -1.000
 5349.00    1.03998   0.99845   -1.000
 5350.00    1.04180   1.00132   -1.000
 5351.00    1.04350   1.00409   -1.000
 5352.00    1.04437   1.00655   -1.000
 5353.00    1.04306   1.00869   -1.000
 5354.00    1.04552   1.01064   -1.000
 5355.00    1.04913   1.01224   -1.000
 5356.00    1.04760   1.01295   -1.000
 5357.00    1.04450   1.01246   -1.000
 5358.00    1.04494   1.01032   -1.000
 5359.00    1.04416   1.00640   -1.000
 5360.00    1.04410   1.00112   -1.000
 5361.00    1.04276   0.99556   -1.000
 5362.00    1.04139   0.99134   -1.000
 5363.00    1.03757   0.98931   -1.000
 5364.00    1.03583   0.98921   -1.000
 5365.00    1.03765   0.98980   -1.000
 5366.00    1.03800   0.98941   -1.000
 5367.00    1.03964   0.98698   -1.000
 5368.00    1.03544   0.98274   -1.000
 5369.00    1.02623   0.97845   -1.000
 5370.00    1.01775   0.97678   -1.000
 5371.00    1.01330   0.97974   -1.000
 5372.00    1.02525   0.98704   -1.000
 5373.00    1.03895   0.99573   -1.000
 5374.00    1.04165   1.00308   -1.000
 5375.00    1.04474   1.00722   -1.000
 5376.00    1.04691   1.00812   -1.000
 5377.00    1.04742   1.00631   -1.000
 5378.00    1.04335   1.00259   -1.000
 5379.00    1.04117   0.99817   -1.000
 5380.00    1.03947   0.99458   -1.000
 5381.00    1.03819   0.99310   -1.000
 5382.00    1.03667   0.99421   -1.000
 5383.00    1.03475   0.99727   -1.000
 5384.00    1.04022   1.00115   -1.000
 5385.00    1.04745   1.00459   -1.000
 5386.00    1.04767   1.00651   -1.000
 5387.00    1.04897   1.00649   -1.000
 5388.00    1.04951   1.00473   -1.000
 5389.00    1.04656   1.00176   -1.000
 5390.00    1.04377   0.99849   -1.000
 5391.00    1.04133   0.99515   -1.000
 5392.00    1.03764   0.99202   -1.000
 5393.00    1.03546   0.98851   -1.000
 5394.00    1.03548   0.98437   -1.000
 5395.00    1.02654   0.98027   -1.000
 5396.00    1.01799   0.97797   -1.000
 5397.00    1.02310   0.97923   -1.000
 5398.00    1.03097   0.98307   -1.000
 5399.00    1.03641   0.98723   -1.000
 5400.00    1.04030   0.98889   -1.000
 5401.00    1.04286   0.98693   -1.000
 5402.00    1.04042   0.98172   -1.000
 5403.00    1.03162   0.97540   -1.000
 5404.00    1.02004   0.97051   -1.000
 5405.00    1.01592   0.96890   -1.000
 5406.00    1.02310   0.97046   -1.000
 5407.00    1.03119   0.97306   -1.000
 5408.00    1.03044   0.97524   -1.000
 5409.00    1.03188   0.97665   -1.000
 5410.00    1.03523   0.97801   -1.000
 5411.00    1.03853   0.97964   -1.000
 5412.00    1.03995   0.98081   -1.000
 5413.00    1.04152   0.98174   -1.000
 5414.00    1.03567   0.98289   -1.000
 5415.00    1.03230   0.98474   -1.000
 5416.00    1.03417   0.98711   -1.000
 5417.00    1.03266   0.98916   -1.000
 5418.00    1.03414   0.99055   -1.000
 5419.00    1.04015   0.99104   -1.000
 5420.00    1.03923   0.99040   -1.000
 5421.00    1.03813   0.98857   -1.000
 5422.00    1.03192   0.98624   -1.000
 5423.00    1.03038   0.98437   -1.000
 5424.00    1.04111   0.98408   -1.000
 5425.00    1.03959   0.98489   -1.000
 5426.00    1.03604   0.98523   -1.000
 5427.00    1.03310   0.98409   -1.000
 5428.00    1.02394   0.98174   -1.000
 5429.00    1.01796   0.97998   -1.000
 5430.00    1.02250   0.97925   -1.000
 5431.00    1.02807   0.97867   -1.000
 5432.00    1.02900   0.97809   -1.000
 5433.00    1.02515   0.97800   -1.000
 5434.00    1.01943   0.98043   -1.000
 5435.00    1.02367   0.98567   -1.000
 5436.00    1.03450   0.99229   -1.000
 5437.00    1.04181   0.99841   -1.000
 5438.00    1.04471   1.00250   -1.000
 5439.00    1.04392   1.00446   -1.000
 5440.00    1.04298   1.00444   -1.000
 5441.00    1.04132   1.00247   -1.000
 5442.00    1.03816   0.99817   -1.000
 5443.00    1.03522   0.99157   -1.000
 5444.00    1.03065   0.98396   -1.000
 5445.00    1.02399   0.97763   -1.000
 5446.00    1.01954   0.97548   -1.000
 5447.00    1.02293   0.97818   -1.000
 5448.00    1.02975   0.98425   -1.000
 5449.00    1.03645   0.99052   -1.000
 5450.00    1.03837   0.99422   -1.000
 5451.00    1.03910   0.99389   -1.000
 5452.00    1.03619   0.98987   -1.000
 5453.00    1.02863   0.98414   -1.000
 5454.00    1.01997   0.97973   -1.000
 5455.00    1.01524   0.97963   -1.000
 5456.00    1.02036   0.98402   -1.000
 5457.00    1.03078   0.99115   -1.000
 5458.00    1.03826   0.99736   -1.000
 5459.00    1.03805   1.00081   -1.000
 5460.00    1.03595   1.00086   -1.000
 5461.00    1.03618   0.99879   -1.000
 5462.00    1.03290   0.99623   -1.000
 5463.00    1.03314   0.99484   -1.000
 5464.00    1.03555   0.99504   -1.000
 5465.00    1.03644   0.99640   -1.000
 5466.00    1.04055   0.99830   -1.000
 5467.00    1.04124   1.00021   -1.000
 5468.00    1.04160   1.00177   -1.000
 5469.00    1.04216   1.00253   -1.000
 5470.00    1.04049   1.00182   -1.000
 5471.00    1.04068   0.99952   -1.000
 5472.00    1.03941   0.99559   -1.000
 5473.00    1.03719   0.99029   -1.000
 5474.00    1.03405   0.98439   -1.000
 5475.00    1.02704   0.97956   -1.000
 5476.00    1.02190   0.97762   -1.000
 5477.00    1.02322   0.97970   -1.000
 5478.00    1.02727   0.98421   -1.000
 5479.00    1.03459   0.98908   -1.000
 5480.00    1.03871   0.99290   -1.000
 5481.00    1.03570   0.99549   -1.000
 5482.00    1.03525   0.99748   -1.000
 5483.00    1.03532   0.99918   -1.000
 5484.00    1.03517   1.00036   -1.000
 5485.00    1.03547   1.00066   -1.000
 5486.00    1.03361   1.00003   -1.000
 5487.00    1.03373   0.99890   -1.000
 5488.00    1.03194   0.99787   -1.000
 5489.00    1.03143   0.99742   -1.000
 5490.00    1.03215   0.99767   -1.000
 5491.00    1.03315   0.99830   -1.000
 5492.00    1.03292   0.99854   -1.000
 5493.00    1.03363   0.99786   -1.000
 5494.00    1.03406   0.99600   -1.000
 5495.00    1.02866   0.99339   -1.000
 5496.00    1.02310   0.99085   -1.000
 5497.00    1.02206   0.98931   -1.000
 5498.00    1.02369   0.98863   -1.000
 5499.00    1.02627   0.98803   -1.000
 5500.00    1.02402   0.98736   -1.000
 5501.00    1.02558   0.98693   -1.000
 5502.00    1.03104   0.98715   -1.000
 5503.00    1.03349   0.98745   -1.000
 5504.00    1.03268   0.98663   -1.000
 5505.00    1.02601   0.98504   -1.000
 5506.00    1.01846   0.98376   -1.000
 5507.00    1.02100   0.98399   -1.000
 5508.00    1.02552   0.98573   -1.000
 5509.00    1.03257   0.98763   -1.000
 5510.00    1.03561   0.98918   -1.000
 5511.00    1.03309   0.99023   -1.000
 5512.00    1.03258   0.99140   -1.000
 5513.00    1.03314   0.99313   -1.000
 5514.00    1.03412   0.99536   -1.000
 5515.00    1.03736   0.99789   -1.000
 5516.00    1.03716   1.00018   -1.000
 5517.00    1.03463   1.00189   -1.000
 5518.00    1.03771   1.00275   -1.000
 5519.00    1.03996   1.00276   -1.000
 5520.00    1.03697   1.00198   -1.000
 5521.00    1.03502   1.00047   -1.000
 5522.00    1.03604   0.99755   -1.000
 5523.00    1.03644   0.99249   -1.000
 5524.00    1.03464   0.98526   -1.000
 5525.00    1.02908   0.97706   -1.000
 5526.00    1.02019   0.97084   -1.000
 5527.00    1.01639   0.96890   -1.000
 5528.00    1.01915   0.97186   -1.000
 5529.00    1.02394   0.97751   -1.000
 5530.00    1.03098   0.98264   -1.000
 5531.00    1.03378   0.98495   -1.000
 5532.00    1.03029   0.98434   -1.000
 5533.00    1.02886   0.98283   -1.000
 5534.00    1.02764   0.98276   -1.000
 5535.00    1.03136   0.98536   -1.000
 5536.00    1.03265   0.98957   -1.000
 5537.00    1.03264   0.99378   -1.000
 5538.00    1.03460   0.99663   -1.000
 5539.00    1.03534   0.99775   -1.000
 5540.00    1.03652   0.99754   -1.000
 5541.00    1.03586   0.99650   -1.000
 5542.00    1.03385   0.99523   -1.000
 5543.00    1.03648   0.99436   -1.000
 5544.00    1.03528   0.99435   -1.000
 5545.00    1.03294   0.99533   -1.000
 5546.00    1.03242   0.99696   -1.000
 5547.00    1.03342   0.99873   -1.000
 5548.00    1.03604   1.00005   -1.000
 5549.00    1.03475   1.00065   -1.000
 5550.00    1.03445   1.00049   -1.000
 5551.00    1.03652   1.00002   -1.000
 5552.00    1.03534   0.99957   -1.000
 5553.00    1.03062   0.99926   -1.000
 5554.00    1.02992   0.99929   -1.000
 5555.00    1.03127   0.99956   -1.000
 5556.00    1.03176   0.99994   -1.000
 5557.00    1.03274   1.00014   -1.000
 5558.00    1.03213   0.99999   -1.000
 5559.00    1.03374   0.99945   -1.000
 5560.00    1.03541   0.99845   -1.000
 5561.00    1.03049   0.99723   -1.000
 5562.00    1.02861   0.99615   -1.000
 5563.00    1.03106   0.99527   -1.000
 5564.00    1.02972   0.99447   -1.000
 5565.00    1.02890   0.99326   -1.000
 5566.00    1.03009   0.99165   -1.000
 5567.00    1.02972   0.98972   -1.000
 5568.00    1.02716   0.98756   -1.000
 5569.00    1.02519   0.98572   -1.000
 5570.00    1.02298   0.98399   -1.000
 5571.00    1.01850   0.98267   -1.000
 5572.00    1.01870   0.98252   -1.000
 5573.00    1.02350   0.98344   -1.000
 5574.00    1.02551   0.98522   -1.000
 5575.00    1.02645   0.98725   -1.000
 5576.00    1.03767   0.98903   -1.000
 5577.00    1.06652   0.99023   -1.000
 5578.00    1.11206   0.99081   -1.000
 5579.00    1.11608   0.99084   -1.000
 5580.00    1.01325   0.99036   -1.000
 5581.00    0.91938   0.98964   -1.000
 5582.00    0.93749   0.98812   -1.000
 5583.00    0.99097   0.98518   -1.000
 5584.00    1.01481   0.98041   -1.000
 5585.00    1.01729   0.97473   -1.000
 5586.00    1.01252   0.96992   -1.000
 5587.00    1.00769   0.96763   -1.000
 5588.00    1.00694   0.96841   -1.000
 5589.00    1.01305   0.97147   -1.000
 5590.00    1.02054   0.97528   -1.000
 5591.00    1.02567   0.97821   -1.000
 5592.00    1.02293   0.97995   -1.000
 5593.00    1.01797   0.98073   -1.000
 5594.00    1.01870   0.98134   -1.000
 5595.00    1.01995   0.98178   -1.000
 5596.00    1.02004   0.98146   -1.000
 5597.00    1.01941   0.98039   -1.000
 5598.00    1.01798   0.97879   -1.000
 5599.00    1.02037   0.97702   -1.000
 5600.00    1.01995   0.97576   -1.000
 5601.00    1.01782   0.97620   -1.000
 5602.00    1.01702   0.97889   -1.000
 5603.00    1.01777   0.98351   -1.000
 5604.00    1.02068   0.98872   -1.000
 5605.00    1.02293   0.99312   -1.000
 5606.00    1.02379   0.99605   -1.000
 5607.00    1.02574   0.99767   -1.000
 5608.00    1.02675   0.99838   -1.000
 5609.00    1.02596   0.99832   -1.000
 5610.00    1.02457   0.99712   -1.000
 5611.00    1.02485   0.99413   -1.000
 5612.00    1.02547   0.98955   -1.000
 5613.00    1.01755   0.98447   -1.000
 5614.00    1.00891   0.98115   -1.000
 5615.00    1.00853   0.98145   -1.000
 5616.00    1.01202   0.98479   -1.000
 5617.00    1.01940   0.98946   -1.000
 5618.00    1.02477   0.99320   -1.000
 5619.00    1.02300   0.99520   -1.000
 5620.00    1.02100   0.99550   -1.000
 5621.00    1.02293   0.99459   -1.000
 5622.00    1.02116   0.99310   -1.000
 5623.00    1.02004   0.99192   -1.000
 5624.00    1.02064   0.99166   -1.000
 5625.00    1.01867   0.99261   -1.000
 5626.00    1.01889   0.99424   -1.000
 5627.00    1.02136   0.99597   -1.000
 5628.00    1.02342   0.99736   -1.000
 5629.00    1.02392   0.99807   -1.000
 5630.00    1.02208   0.99820   -1.000
 5631.00    1.02425   0.99784   -1.000
 5632.00    1.02372   0.99717   -1.000
 5633.00    1.02037   0.99654   -1.000
 5634.00    1.02047   0.99592   -1.000
 5635.00    1.02063   0.99513   -1.000
 5636.00    1.01927   0.99403   -1.000
 5637.00    1.02005   0.99249   -1.000
 5638.00    1.01638   0.99077   -1.000
 5639.00    1.01578   0.98928   -1.000
 5640.00    1.01754   0.98856   -1.000
 5641.00    1.01653   0.98901   -1.000
 5642.00    1.01626   0.99034   -1.000
 5643.00    1.01540   0.99209   -1.000
 5644.00    1.01719   0.99385   -1.000
 5645.00    1.01930   0.99515   -1.000
 5646.00    1.02022   0.99588   -1.000
 5647.00    1.01994   0.99606   -1.000
 5648.00    1.01788   0.99569   -1.000
 5649.00    1.01758   0.99502   -1.000
 5650.00    1.01713   0.99433   -1.000
 5651.00    1.01707   0.99355   -1.000
 5652.00    1.01584   0.99232   -1.000
 5653.00    1.01491   0.98984   -1.000
 5654.00    1.01521   0.98558   -1.000
 5655.00    1.01329   0.97984   -1.000
 5656.00    1.00902   0.97413   -1.000
 5657.00    1.00351   0.97094   -1.000
 5658.00    1.00137   0.97125   -1.000
 5659.00    1.00389   0.97427   -1.000
 5660.00    1.01011   0.97821   -1.000
 5661.00    1.01473   0.98167   -1.000
 5662.00    1.01386   0.98463   -1.000
 5663.00    1.01248   0.98668   -1.000
 5664.00    1.01451   0.98718   -1.000
 5665.00    1.01647   0.98618   -1.000
 5666.00    1.01357   0.98445   -1.000
 5667.00    1.00957   0.98339   -1.000
 5668.00    1.00718   0.98402   -1.000
 5669.00    1.00919   0.98607   -1.000
 5670.00    1.01164   0.98876   -1.000
 5671.00    1.01407   0.99116   -1.000
 5672.00    1.01318   0.99279   -1.000
 5673.00    1.01106   0.99377   -1.000
 5674.00    1.01125   0.99428   -1.000
 5675.00    1.01129   0.99449   -1.000
 5676.00    1.00995   0.99436   -1.000
 5677.00    1.00998   0.99362   -1.000
 5678.00    1.01330   0.99212   -1.000
 5679.00    1.01114   0.98981   -1.000
 5680.00    1.00897   0.98677   -1.000
 5681.00    1.00621   0.98353   -1.000
 5682.00    1.00357   0.98089   -1.000
 5683.00    1.00260   0.97962   -1.000
 5684.00    1.00257   0.97989   -1.000
 5685.00    1.00297   0.98117   -1.000
 5686.00    1.00290   0.98264   -1.000
 5687.00    1.00184   0.98387   -1.000
 5688.00    1.00209   0.98491   -1.000
 5689.00    1.00361   0.98598   -1.000
 5690.00    1.00411   0.98723   -1.000
 5691.00    1.00213   0.98860   -1.000
 5692.00    1.00322   0.98992   -1.000
 5693.00    1.00323   0.99099   -1.000
 5694.00    1.00305   0.99167   -1.000
 5695.00    1.00141   0.99184   -1.000
 5696.00    1.00200   0.99146   -1.000
 5697.00    1.00436   0.99038   -1.000
 5698.00    1.00266   0.98872   -1.000
 5699.00    0.99800   0.98699   -1.000
 5700.00    0.99673   0.98575   -1.000
 5701.00    0.99762   0.98526   -1.000
 5702.00    0.99849   0.98536   -1.000
 5703.00    0.99973   0.98529   -1.000
 5704.00    0.99991   0.98427   -1.000
 5705.00    0.99958   0.98219   -1.000
 5706.00    0.99631   0.97916   -1.000
 5707.00    0.99188   0.97590   -1.000
 5708.00    0.99049   0.97349   -1.000
 5709.00    0.99278   0.97276   -1.000
 5710.00    0.99469   0.97406   -1.000
 5711.00    0.99501   0.97695   -1.000
 5712.00    0.99815   0.98030   -1.000
 5713.00    0.99990   0.98323   -1.000
 5714.00    0.99959   0.98542   -1.000
 5715.00    1.00088   0.98697   -1.000
 5716.00    1.00052   0.98806   -1.000
 5717.00    1.00040   0.98879   -1.000
 5718.00    1.00068   0.98933   -1.000
 5719.00    0.99885   0.98970   -1.000
 5720.00    0.99769   0.98988   -1.000
 5721.00    0.99434   0.98996  450.243
 5722.00    0.99476   0.98993  448.962
 5723.00    0.99627   0.98972   -1.000
 5724.00    0.99709   0.98923   -1.000
 5725.00    0.99644   0.98838   -1.000
 5726.00    0.99549   0.98741   -1.000
 5727.00    0.99530   0.98656   -1.000
 5728.00    0.99430   0.98605   -1.000
 5729.00    0.99354   0.98610   -1.000
 5730.00    0.99253   0.98654   -1.000
 5731.00    0.99548   0.98720   -1.000
 5732.00    0.99746   0.98799   -1.000
 5733.00    0.99765   0.98873   -1.000
 5734.00    0.99612   0.98913   -1.000
 5735.00    0.99460   0.98922   -1.000
 5736.00    0.99578   0.98915   -1.000
 5737.00    0.99530   0.98900   -1.000
 5738.00    0.99288   0.98893  452.157
 5739.00    0.99080   0.98901  452.762
 5740.00    0.99138   0.98916  453.559
 5741.00    0.99558   0.98926   -1.000
 5742.00    0.99445   0.98923  455.271
 5743.00    0.99317   0.98897  454.694
 5744.00    0.99172   0.98848  454.035
 5745.00    0.98984   0.98799  451.387
 5746.00    0.99150   0.98776  448.634
 5747.00    0.99041   0.98787  449.992
 5748.00    0.98900   0.98809  454.194
 5749.00    0.98994   0.98786  456.640
 5750.00    0.99198   0.98694  454.869
 5751.00    0.99425   0.98557   -1.000
 5752.00    0.99508   0.98445   -1.000
 5753.00    0.99159   0.98432   -1.000
 5754.00    0.98641   0.98530  465.682
 5755.00    0.98714   0.98698  466.666
 5756.00    0.99034   0.98871  461.910
 5757.00    0.99225   0.98983  453.748
 5758.00    0.99317   0.98987  447.587
 5759.00    0.99271   0.98898  447.490
 5760.00    0.99273   0.98773  451.880
 5761.00    0.99020   0.98675  457.725
 5762.00    0.98966   0.98666  463.956
 5763.00    0.99157   0.98746  467.245
 5764.00    0.98888   0.98842  463.807
 5765.00    0.98945   0.98903  456.036
 5766.00    0.99040   0.98906  449.758
 5767.00    0.98912   0.98864  447.476
 5768.00    0.98657   0.98809  446.930
 5769.00    0.98344   0.98754  446.257
 5770.00    0.98533   0.98703  446.754
 5771.00    0.98858   0.98641  448.165
 5772.00    0.98720   0.98565  450.433
 5773.00    0.98361   0.98468  453.200
 5774.00    0.98205   0.98361  454.747
 5775.00    0.98235   0.98258  455.382
 5776.00    0.98515   0.98124  454.785
 5777.00    0.98514   0.97952   -1.000
 5778.00    0.98135   0.97773  451.840
 5779.00    0.97879   0.97620  452.885
 5780.00    0.97717   0.97534  458.268
 5781.00    0.97122   0.97536  467.933
 5782.00    0.96990   0.97610  475.279
 5783.00    0.97561   0.97724  475.997
 5784.00    0.98146   0.97840  474.161
 5785.00    0.98334   0.97933  472.418
 5786.00    0.98445   0.97997  470.706
 5787.00    0.98721   0.98043   -1.000
 5788.00    0.98909   0.98085   -1.000
 5789.00    0.98763   0.98131   -1.000
 5790.00    0.98638   0.98191  455.627
 5791.00    0.98405   0.98276  457.433
 5792.00    0.98338   0.98375  457.483
 5793.00    0.98380   0.98470  454.368
 5794.00    0.98569   0.98532  451.001
 5795.00    0.98771   0.98550  448.221
 5796.00    0.98565   0.98553  447.310
 5797.00    0.98127   0.98575  449.317
 5798.00    0.97811   0.98619   -1.000
 5799.00    0.97949   0.98670  451.380
 5800.00    0.98492   0.98719  446.346
 5801.00    0.98830   0.98758  440.210
 5802.00    0.98721   0.98777  437.888
 5803.00    0.98878   0.98803  440.536
 5804.00    0.99019   0.98849  444.190
 5805.00    0.98921   0.98907  447.753
 5806.00    0.98929   0.98974  450.190
 5807.00    0.98923   0.99029  449.879
 5808.00    0.98843   0.99065  448.250
 5809.00    0.98869   0.99085  446.812
 5810.00    0.99088   0.99090  446.465
 5811.00    0.99081   0.99081  446.185
 5812.00    0.98999   0.99054  444.799
 5813.00    0.99099   0.99024  443.353
 5814.00    0.99005   0.99015  443.686
 5815.00    0.98861   0.99038  446.734
 5816.00    0.98867   0.99091  449.325
 5817.00    0.99039   0.99152  448.089
 5818.00    0.99028   0.99210  445.058
 5819.00    0.98738   0.99255  442.453
 5820.00    0.98687   0.99287  440.233
 5821.00    0.99091   0.99309  438.586
 5822.00    0.99176   0.99326  438.752
 5823.00    0.99001   0.99345  440.167
 5824.00    0.99114   0.99371  440.014
 5825.00    0.99105   0.99404  439.241
 5826.00    0.99044   0.99433  438.480
 5827.00    0.99116   0.99459  437.949
 5828.00    0.99041   0.99467  437.944
 5829.00    0.98913   0.99449  438.651
 5830.00    0.99059   0.99411  438.260
 5831.00    0.98940   0.99351  438.052
 5832.00    0.99049   0.99284  437.679
 5833.00    0.99428   0.99237  438.135
 5834.00    0.99306   0.99231  440.604
 5835.00    0.99029   0.99276  441.981
 5836.00    0.98986   0.99357  440.992
 5837.00    0.98764   0.99449  439.899
 5838.00    0.98857   0.99515  440.755
 5839.00    0.98983   0.99520  441.954
 5840.00    0.98899   0.99463  441.155
 5841.00    0.98773   0.99357  438.288
 5842.00    0.98682   0.99228  435.695
 5843.00    0.98707   0.99103  435.209
 5844.00    0.98862   0.98999  436.387
 5845.00    0.98751   0.98925  438.062
 5846.00    0.98635   0.98873  440.681
 5847.00    0.98600   0.98809  443.124
 5848.00    0.98639   0.98687  445.288
 5849.00    0.98634   0.98485  445.508
 5850.00    0.98303   0.98207  445.802
 5851.00    0.97904   0.97890  447.931
 5852.00    0.97725   0.97610  450.735
 5853.00    0.97665   0.97423  454.767
 5854.00    0.97923   0.97299   -1.000
 5855.00    0.98060   0.97200   -1.000
 5856.00    0.97998   0.97161   -1.000
 5857.00    0.97978   0.97206   -1.000
 5858.00    0.98200   0.97344   -1.000
 5859.00    0.98362   0.97552   -1.000
 5860.00    0.98193   0.97773  460.704
 5861.00    0.98074   0.97962  456.308
 5862.00    0.97981   0.98088  454.286
 5863.00    0.98162   0.98136  452.536
 5864.00    0.98431   0.98117  451.538
 5865.00    0.98469   0.98075  452.335
 5866.00    0.98409   0.98058  453.893
 5867.00    0.98416   0.98071  455.959
 5868.00    0.98492   0.98101  456.249
 5869.00    0.98323   0.98118  452.835
 5870.00    0.98209   0.98079  448.760
 5871.00    0.98233   0.97960  446.351
 5872.00    0.98304   0.97778  445.831
 5873.00    0.98248   0.97567   -1.000
 5874.00    0.98486   0.97381   -1.000
 5875.00    0.98582   0.97271   -1.000
 5876.00    0.98252   0.97219   -1.000
 5877.00    0.98048   0.97176   -1.000
 5878.00    0.97849   0.97103   -1.000
 5879.00    0.97503   0.96960   -1.000
 5880.00    0.97298   0.96735   -1.000
 5881.00    0.97280   0.96427   -1.000
 5882.00    0.96953   0.96057   -1.000
 5883.00    0.96777   0.95615   -1.000
 5884.00    0.96585   0.95011   -1.000
 5885.00    0.96066   0.94091   -1.000
 5886.00    0.95410   0.92773   -1.000
 5887.00    0.93817   0.91237   -1.000
 5888.00    0.90865   0.90023   -1.000
 5889.00    0.86883   0.89565   -1.000
 5890.00    0.83161   0.89813   -1.000
 5891.00    0.82435   0.90359   -1.000
 5892.00    0.83870   0.90705   -1.000
 5893.00    0.85036   0.90657   -1.000
 5894.00    0.85264   0.90491   -1.000
 5895.00    0.85584   0.90703   -1.000
 5896.00    0.85434   0.91419   -1.000
 5897.00    0.85792   0.92455   -1.000
 5898.00    0.87464   0.93579   -1.000
 5899.00    0.89536   0.94541   -1.000
 5900.00    0.91774   0.95257   -1.000
 5901.00    0.93344   0.95765   -1.000
 5902.00    0.94364   0.96121   -1.000
 5903.00    0.95164   0.96367   -1.000
 5904.00    0.95714   0.96532   -1.000
 5905.00    0.96246   0.96631  458.760
 5906.00    0.96704   0.96674  459.276
 5907.00    0.96988   0.96685  459.338
 5908.00    0.97020   0.96666  458.593
 5909.00    0.96545   0.96593  457.539
 5910.00    0.96341   0.96463  458.392
 5911.00    0.96222   0.96280  459.430
 5912.00    0.96170   0.96060  459.901
 5913.00    0.96195   0.95855  461.295
 5914.00    0.96304   0.95713   -1.000
 5915.00    0.96414   0.95640   -1.000
 5916.00    0.96342   0.95658   -1.000
 5917.00    0.96275   0.95771   -1.000
 5918.00    0.96209   0.95926  466.972
 5919.00    0.95569   0.96076  465.139
 5920.00    0.94788   0.96203   -1.000
 5921.00    0.94657   0.96294   -1.000
 5922.00    0.94975   0.96373   -1.000
 5923.00    0.95378   0.96464   -1.000
 5924.00    0.95303   0.96551   -1.000
 5925.00    0.94832   0.96622   -1.000
 5926.00    0.94853   0.96655   -1.000
 5927.00    0.95467   0.96622   -1.000
 5928.00    0.96152   0.96561  458.570
 5929.00    0.96639   0.96527  461.292
 5930.00    0.96936   0.96520  464.950
 5931.00    0.96861   0.96534  465.626
 5932.00    0.96677   0.96543  461.970
 5933.00    0.96640   0.96519  459.018
 5934.00    0.96584   0.96476  461.039
 5935.00    0.96550   0.96425  464.542
 5936.00    0.96607   0.96348  465.898
 5937.00    0.96756   0.96225   -1.000
 5938.00    0.96940   0.96066   -1.000
 5939.00    0.97210   0.95916   -1.000
 5940.00    0.97014   0.95797   -1.000
 5941.00    0.96259   0.95718   -1.000
 5942.00    0.95331   0.95698  465.857
 5943.00    0.94554   0.95726   -1.000
 5944.00    0.94508   0.95766   -1.000
 5945.00    0.94873   0.95800   -1.000
 5946.00    0.95051   0.95825  459.148
 5947.00    0.94907   0.95879   -1.000
 5948.00    0.94738   0.95984   -1.000
 5949.00    0.95010   0.96102   -1.000
 5950.00    0.95242   0.96221   -1.000
 5951.00    0.95238   0.96318   -1.000
 5952.00    0.95674   0.96358  466.402
 5953.00    0.96339   0.96334  466.853
 5954.00    0.96798   0.96271   -1.000
 5955.00    0.96869   0.96216   -1.000
 5956.00    0.96803   0.96203   -1.000
 5957.00    0.96539   0.96243  467.495
 5958.00    0.96078   0.96319  468.591
 5959.00    0.96022   0.96408  467.381
 5960.00    0.95900   0.96493  462.857
 5961.00    0.96176   0.96542  458.014
 5962.00    0.96598   0.96535  455.561
 5963.00    0.96866   0.96474  454.811
 5964.00    0.97121   0.96384   -1.000
 5965.00    0.97145   0.96306   -1.000
 5966.00    0.97072   0.96262   -1.000
 5967.00    0.96703   0.96264  461.126
 5968.00    0.96169   0.96310  460.835
 5969.00    0.95780   0.96379  457.851
 5970.00    0.95798   0.96447  455.982
 5971.00    0.96157   0.96489  455.720
 5972.00    0.96356   0.96494  454.983
 5973.00    0.96484   0.96445  454.298
 5974.00    0.96615   0.96353  455.977
 5975.00    0.96545   0.96258  459.431
 5976.00    0.96272   0.96185  463.015
 5977.00    0.96059   0.96167  466.371
 5978.00    0.95824   0.96206  468.802
 5979.00    0.95845   0.96251  467.814
 5980.00    0.96493   0.96263  464.146
 5981.00    0.96973   0.96228   -1.000
 5982.00    0.96855   0.96164   -1.000
 5983.00    0.96767   0.96110   -1.000
 5984.00    0.96837   0.96089   -1.000
 5985.00    0.96906   0.96091   -1.000
 5986.00    0.96831   0.96097   -1.000
 5987.00    0.96602   0.96087   -1.000
 5988.00    0.96503   0.96057  463.852
 5989.00    0.96506   0.96034  462.078
 5990.00    0.96545   0.96068  460.058
 5991.00    0.96599   0.96174  459.887
 5992.00    0.96653   0.96325  461.011
 5993.00    0.96691   0.96475  459.677
 5994.00    0.96733   0.96583  456.109
 5995.00    0.96918   0.96631  454.055
 5996.00    0.96889   0.96631  456.075
 5997.00    0.96712   0.96609  459.456
 5998.00    0.96837   0.96567  461.779
 5999.00    0.96869   0.96499  462.996
 6000.00    0.96731   0.96414  462.639
 6001.00    0.96819   0.96322  462.637
 6002.00    0.96770   0.96230   -1.000
 6003.00    0.96571   0.96137  466.812
 6004.00    0.96748   0.96044   -1.000
 6005.00    0.96825   0.95955   -1.000
 6006.00    0.96787   0.95888   -1.000
 6007.00    0.96706   0.95877   -1.000
 6008.00    0.96567   0.95928   -1.000
 6009.00    0.96652   0.96007   -1.000
 6010.00    0.96738   0.96084   -1.000
 6011.00    0.96699   0.96143   -1.000
 6012.00    0.96563   0.96194  463.713
 6013.00    0.96532   0.96240  466.549
 6014.00    0.96820   0.96260   -1.000
 6015.00    0.96804   0.96241   -1.000
 6016.00    0.96869   0.96176   -1.000
 6017.00    0.96787   0.96074   -1.000
 6018.00    0.96717   0.95975   -1.000
 6019.00    0.96761   0.95901   -1.000
 6020.00    0.96620   0.95856   -1.000
 6021.00    0.96559   0.95837   -1.000
 6022.00    0.96657   0.95857   -1.000
 6023.00    0.96503   0.95922   -1.000
 6024.00    0.96660   0.96011   -1.000
 6025.00    0.96693   0.96111   -1.000
 6026.00    0.96652   0.96214  465.176
 6027.00    0.96819   0.96297   -1.000
 6028.00    0.96829   0.96352  460.878
 6029.00    0.97080   0.96390   -1.000
 6030.00    0.97261   0.96412   -1.000
 6031.00    0.96873   0.96420  457.491
 6032.00    0.96404   0.96429  458.313
 6033.00    0.96443   0.96453  458.090
 6034.00    0.96742   0.96464  456.297
 6035.00    0.97055   0.96427   -1.000
 6036.00    0.97085   0.96345   -1.000
 6037.00    0.97116   0.96208   -1.000
 6038.00    0.96901   0.95982   -1.000
 6039.00    0.96522   0.95691   -1.000
 6040.00    0.96559   0.95322   -1.000
 6041.00    0.96442   0.94942   -1.000
 6042.00    0.96415   0.94824   -1.000
 6043.00    0.96501   0.95013   -1.000
 6044.00    0.96486   0.95344   -1.000
 6045.00    0.96569   0.95669   -1.000
 6046.00    0.96649   0.95883   -1.000
 6047.00    0.96625   0.95906   -1.000
 6048.00    0.96542   0.95807   -1.000
 6049.00    0.96497   0.95741   -1.000
 6050.00    0.96637   0.95742   -1.000
 6051.00    0.96782   0.95797   -1.000
 6052.00    0.96751   0.95865   -1.000
 6053.00    0.96651   0.95903   -1.000
 6054.00    0.96611   0.95889   -1.000
 6055.00    0.96783   0.95847   -1.000
 6056.00    0.96880   0.95802   -1.000
 6057.00    0.96767   0.95771   -1.000
 6058.00    0.96629   0.95750   -1.000
 6059.00    0.96678   0.95708   -1.000
 6060.00    0.95508   0.95615  457.612
 6061.00    0.93267   0.95457   -1.000
 6062.00    0.95599   0.95266  458.312
 6063.00    0.88494   0.95108   -1.000
 6064.00    0.56656   0.95056   -1.000
 6065.00    0.45766   0.95141   -1.000
 6066.00    0.76874   0.95313   -1.000
 6067.00    0.94881   0.95502  205.547
 6068.00    0.97158   0.95671   -1.000
 6069.00    0.77111   0.95794   -1.000
 6070.00    0.40300   0.95882   -1.000
 6071.00    0.69157   0.95944   -1.000
 6072.00    0.97725   0.95976   -1.000
 6073.00    0.96465   0.95965  446.696
 6074.00    0.96545   0.95912   -1.000
 6075.00    0.96277   0.95838  453.490
 6076.00    0.96019   0.95775  454.617
 6077.00    0.96110   0.95731  456.788
 6078.00    0.96271   0.95697   -1.000
 6079.00    0.96117   0.95651  462.648
 6080.00    0.96066   0.95576  465.771
 6081.00    0.96038   0.95482   -1.000
 6082.00    0.96070   0.95415   -1.000
 6083.00    0.96159   0.95402   -1.000
 6084.00    0.96107   0.95436   -1.000
 6085.00    0.96049   0.95498   -1.000
 6086.00    0.96259   0.95563   -1.000
 6087.00    0.96123   0.95614   -1.000
 6088.00    0.95942   0.95636  464.957
 6089.00    0.96113   0.95622  464.952
 6090.00    0.96036   0.95608  467.314
 6091.00    0.95790   0.95617  469.650
 6092.00    0.95902   0.95652  470.075
 6093.00    0.96236   0.95720   -1.000
 6094.00    0.96124   0.95814  465.167
 6095.00    0.96111   0.95904  462.684
 6096.00    0.96057   0.95942  460.456
 6097.00    0.96030   0.95873  459.956
 6098.00    0.95830   0.95668  460.894
 6099.00    0.95527   0.95344  461.503
 6100.00    0.95318   0.94979  461.573
 6101.00    0.95281   0.94720   -1.000
 6102.00    0.95152   0.94656   -1.000
 6103.00    0.95372   0.94798   -1.000
 6104.00    0.95603   0.95066   -1.000
 6105.00    0.95641   0.95371  476.375
 6106.00    0.95293   0.95636  468.354
 6107.00    0.95185   0.95818  465.064
 6108.00    0.95277   0.95893  465.977
 6109.00    0.95403   0.95875  467.468
 6110.00    0.95788   0.95786  467.667
 6111.00    0.95594   0.95684  466.862
 6112.00    0.95417   0.95609  465.114
 6113.00    0.95524   0.95582  464.327
 6114.00    0.95405   0.95580  462.744
 6115.00    0.95222   0.95555  461.044
 6116.00    0.95108   0.95437  461.955
 6117.00    0.95146   0.95156  464.734
 6118.00    0.95160   0.94750  466.239
 6119.00    0.94856   0.94290   -1.000
 6120.00    0.94381   0.93919  473.219
 6121.00    0.94069   0.93842  479.835
 6122.00    0.94017   0.94049  484.894
 6123.00    0.94247   0.94371  486.630
 6124.00    0.94721   0.94653  481.276
 6125.00    0.95121   0.94768  474.170
 6126.00    0.95040   0.94645  472.151
 6127.00    0.95013   0.94471   -1.000
 6128.00    0.95214   0.94530   -1.000
 6129.00    0.95374   0.94778   -1.000
 6130.00    0.95376   0.95047  470.856
 6131.00    0.95194   0.95213  466.461
 6132.00    0.95166   0.95123  464.322
 6133.00    0.94965   0.94725  464.762
 6134.00    0.94219   0.94139  468.051
 6135.00    0.93337   0.93603  476.727
 6136.00    0.92825   0.93246  490.058
 6137.00    0.92812   0.93070  503.304
 6138.00    0.93285   0.92958  508.444
 6139.00    0.93740   0.92883   -1.000
 6140.00    0.93657   0.92962   -1.000
 6141.00    0.93346   0.93217  477.461
 6142.00    0.93442   0.93568  476.629
 6143.00    0.94112   0.93893  477.683
 6144.00    0.94661   0.94075   -1.000
 6145.00    0.94762   0.94075   -1.000
 6146.00    0.94602   0.93962   -1.000
 6147.00    0.94458   0.93869   -1.000
 6148.00    0.94512   0.93890   -1.000
 6149.00    0.94669   0.94021   -1.000
 6150.00    0.94542   0.94198  477.208
 6151.00    0.94401   0.94356  478.146
 6152.00    0.94595   0.94426  476.862
 6153.00    0.94681   0.94388  473.986
 6154.00    0.94521   0.94269  472.399
 6155.00    0.94433   0.94091  474.997
 6156.00    0.94377   0.93874   -1.000
 6157.00    0.94340   0.93610   -1.000
 6158.00    0.94277   0.93255   -1.000
 6159.00    0.93695   0.92814   -1.000
 6160.00    0.92852   0.92439  492.638
 6161.00    0.92468   0.92281  505.892
 6162.00    0.92615   0.92343  521.121
 6163.00    0.93005   0.92553   -1.000
 6164.00    0.93451   0.92791   -1.000
 6165.00    0.93724   0.92969   -1.000
 6166.00    0.93762   0.93049   -1.000
 6167.00    0.93503   0.93058  498.780
 6168.00    0.93219   0.93074  499.132
 6169.00    0.93482   0.93159  504.005
 6170.00    0.93613   0.93319  509.891
 6171.00    0.93472   0.93526  509.071
 6172.00    0.93711   0.93752  500.815
 6173.00    0.93525   0.93962  492.630
 6174.00    0.93473   0.94107  490.751
 6175.00    0.93837   0.94180  491.534
 6176.00    0.93711   0.94201  490.809
 6177.00    0.93655   0.94187  489.705
 6178.00    0.93831   0.94170  488.540
 6179.00    0.93675   0.94175  486.466
 6180.00    0.93621   0.94194  484.428
 6181.00    0.93493   0.94217  482.857
 6182.00    0.93492   0.94241  480.851
 6183.00    0.93410   0.94251   -1.000
 6184.00    0.93526   0.94221  479.522
 6185.00    0.93728   0.94125  481.075
 6186.00    0.93459   0.93940  484.207
 6187.00    0.93271   0.93661  489.148
 6188.00    0.93069   0.93341  494.374
 6189.00    0.92702   0.93085  499.186
 6190.00    0.92325   0.93005  503.167
 6191.00    0.92145   0.93120   -1.000
 6192.00    0.92600   0.93372   -1.000
 6193.00    0.93308   0.93663  510.452
 6194.00    0.93565   0.93909  499.651
 6195.00    0.93549   0.94061  489.724
 6196.00    0.93625   0.94110  485.289
 6197.00    0.93710   0.94081  484.018
 6198.00    0.93519   0.94054  485.931
 6199.00    0.93241   0.94080   -1.000
 6200.00    0.93101   0.94167   -1.000
 6201.00    0.93018   0.94295   -1.000
 6202.00    0.92941   0.94424   -1.000
 6203.00    0.92721   0.94510   -1.000
 6204.00    0.92669   0.94550   -1.000
 6205.00    0.92755   0.94550   -1.000
 6206.00    0.92737   0.94526   -1.000
 6207.00    0.92839   0.94482   -1.000
 6208.00    0.92972   0.94413   -1.000
 6209.00    0.93024   0.94316   -1.000
 6210.00    0.92903   0.94173   -1.000
 6211.00    0.92783   0.93996   -1.000
 6212.00    0.92965   0.93820   -1.000
 6213.00    0.93091   0.93675  498.563
 6214.00    0.92870   0.93562  505.307
 6215.00    0.93025   0.93473  511.475
 6216.00    0.92893   0.93388  513.960
 6217.00    0.92499   0.93316   -1.000
 6218.00    0.92812   0.93280  505.454
 6219.00    0.92695   0.93311  507.438
 6220.00    0.92629   0.93410   -1.000
 6221.00    0.84544   0.93523   -1.000
 6222.00    0.81726   0.93616   -1.000
 6223.00    0.89899   0.93664   -1.000
 6224.00    0.93144   0.93635  534.890
 6225.00    0.92324   0.93514   -1.000
 6226.00    0.92032   0.93295   -1.000
 6227.00    0.91981   0.92998   -1.000
 6228.00    0.92069   0.92695  502.735
 6229.00    0.91673   0.92488   -1.000
 6230.00    0.91218   0.92447   -1.000
 6231.00    0.91420   0.92563   -1.000
 6232.00    0.91829   0.92761   -1.000
 6233.00    0.91992   0.92938   -1.000
 6234.00    0.92090   0.92996   -1.000
 6235.00    0.92025   0.92918   -1.000
 6236.00    0.92011   0.92753   -1.000
 6237.00    0.92134   0.92609  497.747
 6238.00    0.92047   0.92551  502.468
 6239.00    0.92066   0.92560  507.624
 6240.00    0.92100   0.92555  512.941
 6241.00    0.91715   0.92453   -1.000
 6242.00    0.91507   0.92234   -1.000
 6243.00    0.91689   0.91940  518.993
 6244.00    0.91671   0.91698  522.808
 6245.00    0.91301   0.91615  523.773
 6246.00    0.90933   0.91733   -1.000
 6247.00    0.90966   0.91981   -1.000
 6248.00    0.91283   0.92234   -1.000
 6249.00    0.91360   0.92359   -1.000
 6250.00    0.91053   0.92340   -1.000
 6251.00    0.90650   0.92239   -1.000
 6252.00    0.90427   0.92146   -1.000
 6253.00    0.90490   0.92118   -1.000
 6254.00    0.90592   0.92175   -1.000
 6255.00    0.90742   0.92288   -1.000
 6256.00    0.90962   0.92430   -1.000
 6257.00    0.91080   0.92578   -1.000
 6258.00    0.91035   0.92720   -1.000
 6259.00    0.91061   0.92833   -1.000
 6260.00    0.91265   0.92926   -1.000
 6261.00    0.91083   0.92991   -1.000
 6262.00    0.90735   0.93021   -1.000
 6263.00    0.90683   0.93023   -1.000
 6264.00    0.91052   0.93017   -1.000
 6265.00    0.91251   0.93000   -1.000
 6266.00    0.90956   0.92926   -1.000
 6267.00    0.90807   0.92773   -1.000
 6268.00    0.90849   0.92549   -1.000
 6269.00    0.90896   0.92287   -1.000
 6270.00    0.90750   0.92003   -1.000
 6271.00    0.90597   0.91675   -1.000
 6272.00    0.90617   0.91272  505.583
 6273.00    0.90561   0.90776  504.150
 6274.00    0.90430   0.90242  504.567
 6275.00    0.90000   0.89749  507.494
 6276.00    0.89335   0.89409  511.554
 6277.00    0.88098   0.89277   -1.000
 6278.00    0.86089   0.89378   -1.000
 6279.00    0.84171   0.89662   -1.000
 6280.00    0.83415   0.90071   -1.000
 6281.00    0.83998   0.90511   -1.000
 6282.00    0.85335   0.90932   -1.000
 6283.00    0.86177   0.91285   -1.000
 6284.00    0.86349   0.91559   -1.000
 6285.00    0.86745   0.91740   -1.000
 6286.00    0.87580   0.91823   -1.000
 6287.00    0.88470   0.91802   -1.000
 6288.00    0.88968   0.91718   -1.000
 6289.00    0.89225   0.91614   -1.000
 6290.00    0.89136   0.91528   -1.000
 6291.00    0.88652   0.91464   -1.000
 6292.00    0.88460   0.91405   -1.000
 6293.00    0.88487   0.91324   -1.000
 6294.00    0.88332   0.91213   -1.000
 6295.00    0.88275   0.91094   -1.000
 6296.00    0.88254   0.90987   -1.000
 6297.00    0.88117   0.90906   -1.000
 6298.00    0.88234   0.90857   -1.000
 6299.00    0.88459   0.90865   -1.000
 6300.00    0.88699   0.90962   -1.000
 6301.00    0.89235   0.91140   -1.000
 6302.00    0.89422   0.91357   -1.000
 6303.00    0.88673   0.91557   -1.000
 6304.00    0.87775   0.91711   -1.000
 6305.00    0.87607   0.91820   -1.000
 6306.00    0.88239   0.91892   -1.000
 6307.00    0.88842   0.91945   -1.000
 6308.00    0.89029   0.91984   -1.000
 6309.00    0.88944   0.91997   -1.000
 6310.00    0.88871   0.91978   -1.000
 6311.00    0.88687   0.91924   -1.000
 6312.00    0.88684   0.91842   -1.000
 6313.00    0.88817   0.91736   -1.000
 6314.00    0.88757   0.91620   -1.000
 6315.00    0.88703   0.91512   -1.000
 6316.00    0.88383   0.91462   -1.000
 6317.00    0.88227   0.91522   -1.000
 6318.00    0.88447   0.91675   -1.000
 6319.00    0.88692   0.91885   -1.000
 6320.00    0.88889   0.92117   -1.000
 6321.00    0.88688   0.92339   -1.000
 6322.00    0.88559   0.92515   -1.000
 6323.00    0.88707   0.92616   -1.000
 6324.00    0.89062   0.92644   -1.000
 6325.00    0.89402   0.92629   -1.000
 6326.00    0.89325   0.92585   -1.000
 6327.00    0.89283   0.92534   -1.000
 6328.00    0.89435   0.92494   -1.000
 6329.00    0.89378   0.92457   -1.000
 6330.00    0.89601   0.92388   -1.000
 6331.00    0.89691   0.92257   -1.000
 6332.00    0.89460   0.92065   -1.000
 6333.00    0.91331   0.91860  489.164
 6334.00    0.91081   0.91740  489.700
 6335.00    0.88832   0.91747   -1.000
 6336.00    0.88748   0.91864   -1.000
 6337.00    0.89085   0.92031   -1.000
 6338.00    0.89448   0.92190   -1.000
 6339.00    0.89761   0.92296   -1.000
 6340.00    0.89835   0.92323   -1.000
 6341.00    0.89703   0.92255   -1.000
 6342.00    0.89230   0.92088   -1.000
 6343.00    0.89010   0.91840   -1.000
 6344.00    0.88986   0.91584   -1.000
 6345.00    0.88990   0.91440   -1.000
 6346.00    0.89196   0.91486   -1.000
 6347.00    0.89028   0.91707   -1.000
 6348.00    0.89107   0.92014   -1.000
 6349.00    0.89357   0.92305   -1.000
 6350.00    0.89392   0.92502   -1.000
 6351.00    0.89427   0.92579   -1.000
 6352.00    0.89069   0.92568   -1.000
 6353.00    0.88743   0.92518   -1.000
 6354.00    0.88703   0.92459   -1.000
 6355.00    0.88528   0.92401   -1.000
 6356.00    0.88520   0.92339   -1.000
 6357.00    0.88572   0.92272   -1.000
 6358.00    0.88255   0.92199   -1.000
 6359.00    0.88247   0.92125   -1.000
 6360.00    0.88299   0.92060   -1.000
 6361.00    0.88072   0.92025   -1.000
 6362.00    0.88113   0.92031   -1.000
 6363.00    0.88372   0.92048   -1.000
 6364.00    0.88307   0.92048   -1.000
 6365.00    0.88004   0.91998   -1.000
 6366.00    0.88061   0.91870   -1.000
 6367.00    0.88066   0.91668   -1.000
 6368.00    0.87584   0.91452   -1.000
 6369.00    0.87424   0.91303   -1.000
 6370.00    0.87522   0.91291   -1.000
 6371.00    0.87246   0.91417   -1.000
 6372.00    0.87177   0.91609   -1.000
 6373.00    0.87259   0.91787   -1.000
 6374.00    0.86873   0.91901   -1.000
 6375.00    0.86539   0.91936   -1.000
 6376.00    0.86453   0.91911   -1.000
 6377.00    0.86311   0.91850   -1.000
 6378.00    0.86001   0.91777   -1.000
 6379.00    0.85720   0.91701   -1.000
 6380.00    0.85499   0.91637   -1.000
 6381.00    0.85251   0.91599   -1.000
 6382.00    0.85163   0.91597   -1.000
 6383.00    0.85051   0.91634   -1.000
 6384.00    0.84814   0.91710   -1.000
 6385.00    0.84628   0.91801   -1.000
 6386.00    0.84354   0.91858   -1.000
 6387.00    0.84102   0.91851   -1.000
 6388.00    0.83754   0.91763   -1.000
 6389.00    0.83242   0.91594   -1.000
 6390.00    0.82757   0.91384   -1.000
 6391.00    0.82262   0.91205   -1.000
 6392.00    0.81851   0.91127   -1.000
 6393.00    0.81583   0.91146   -1.000
 6394.00    0.81509   0.91203   -1.000
 6395.00    0.81552   0.91221   -1.000
 6396.00    0.81414   0.91167   -1.000
 6397.00    0.80796   0.91080   -1.000
 6398.00    0.79869   0.91038   -1.000
 6399.00    0.79347   0.91097   -1.000
 6400.00    0.79305   0.91250   -1.000
 6401.00    0.79033   0.91429   -1.000
 6402.00    0.78844   0.91539   -1.000
 6403.00    0.78818   0.91513   -1.000
 6404.00    0.78351   0.91335   -1.000
 6405.00    0.77788   0.91047   -1.000
 6406.00    0.77329   0.90741   -1.000
 6407.00    0.76924   0.90570   -1.000
 6408.00    0.76549   0.90575   -1.000
 6409.00    0.76018   0.90673   -1.000
 6410.00    0.75265   0.90802   -1.000
 6411.00    0.74627   0.90896   -1.000
 6412.00    0.74496   0.90900   -1.000
 6413.00    0.74320   0.90831   -1.000
 6414.00    0.73455   0.90815   -1.000
 6415.00    0.72574   0.90861   -1.000
 6416.00    0.72167   0.90930   -1.000
 6417.00    0.71646   0.90985   -1.000
 6418.00    0.70891   0.91029   -1.000
 6419.00    0.70192   0.91087   -1.000
 6420.00    0.69509   0.91190   -1.000
 6421.00    0.69081   0.91351   -1.000
 6422.00    0.68688   0.91542   -1.000
 6423.00    0.67962   0.91724   -1.000
 6424.00    0.67255   0.91850   -1.000
 6425.00    0.66734   0.91872   -1.000
 6426.00    0.66073   0.91759   -1.000
 6427.00    0.65181   0.91530   -1.000
 6428.00    0.64261   0.91253   -1.000
